   361976 U S STANDARD
   2.70000 100.00000  60.00000 190.50433   1.46118   0.00000    0
  WAVELENGTH COMBIN    H2O   UMIX     O3  TRACE     N2    H2O MOLEC AER+CLD  HNO3 AER+CLD
        (NM)  TRANS  TRANS  TRANS  TRANS  TRANS   CONT   CONT   SCAT  TRANS  TRANS abTRNS
     250.000 0.0000 1.0000 0.0477 0.0000 0.9994 1.0000 1.0000 0.0204 1.0000 1.0000 1.0000
     250.500 0.0000 1.0000 0.0566 0.0000 0.9994 1.0000 1.0000 0.0211 1.0000 1.0000 1.0000
     251.000 0.0000 1.0000 0.0666 0.0000 0.9994 1.0000 1.0000 0.0218 1.0000 1.0000 1.0000
     251.500 0.0000 1.0000 0.0778 0.0000 0.9995 1.0000 1.0000 0.0226 1.0000 1.0000 1.0000
     252.000 0.0000 1.0000 0.0902 0.0000 0.9995 1.0000 1.0000 0.0234 1.0000 1.0000 1.0000
     252.500 0.0000 1.0000 0.1038 0.0000 0.9995 1.0000 1.0000 0.0242 1.0000 1.0000 1.0000
     253.000 0.0000 1.0000 0.1186 0.0000 0.9994 1.0000 1.0000 0.0250 1.0000 1.0000 1.0000
     253.500 0.0000 1.0000 0.1345 0.0000 0.9994 1.0000 1.0000 0.0258 1.0000 1.0000 1.0000
     254.000 0.0000 1.0000 0.1517 0.0000 0.9993 1.0000 1.0000 0.0266 1.0000 1.0000 1.0000
     254.500 0.0000 1.0000 0.1699 0.0000 0.9993 1.0000 1.0000 0.0275 1.0000 1.0000 1.0000
     255.000 0.0000 1.0000 0.1893 0.0000 0.9992 1.0000 1.0000 0.0284 1.0000 1.0000 1.0000
     255.500 0.0000 1.0000 0.2096 0.0000 0.9992 1.0000 1.0000 0.0293 1.0000 1.0000 1.0000
     256.000 0.0000 1.0000 0.2308 0.0000 0.9993 1.0000 1.0000 0.0302 1.0000 1.0000 1.0000
     256.500 0.0000 1.0000 0.2529 0.0000 0.9992 1.0000 1.0000 0.0311 1.0000 1.0000 1.0000
     257.000 0.0000 1.0000 0.2758 0.0000 0.9992 1.0000 1.0000 0.0321 1.0000 1.0000 1.0000
     257.500 0.0000 1.0000 0.2993 0.0000 0.9991 1.0000 1.0000 0.0330 1.0000 1.0000 1.0000
     258.000 0.0000 1.0000 0.3233 0.0000 0.9991 1.0000 1.0000 0.0340 1.0000 1.0000 1.0000
     258.500 0.0000 1.0000 0.3478 0.0000 0.9991 1.0000 1.0000 0.0350 1.0000 1.0000 1.0000
     259.000 0.0000 1.0000 0.3726 0.0000 0.9991 1.0000 1.0000 0.0360 1.0000 1.0000 1.0000
     259.500 0.0000 1.0000 0.3976 0.0000 0.9990 1.0000 1.0000 0.0371 1.0000 1.0000 1.0000
     260.000 0.0000 1.0000 0.4228 0.0000 0.9990 1.0000 1.0000 0.0381 1.0000 1.0000 1.0000
     260.500 0.0000 1.0000 0.4480 0.0000 0.9990 1.0000 1.0000 0.0392 1.0000 1.0000 1.0000
     261.000 0.0000 1.0000 0.4731 0.0000 0.9989 1.0000 1.0000 0.0403 1.0000 1.0000 1.0000
     261.500 0.0000 1.0000 0.4980 0.0000 0.9989 1.0000 1.0000 0.0414 1.0000 1.0000 1.0000
     262.000 0.0000 1.0000 0.5227 0.0000 0.9989 1.0000 1.0000 0.0426 1.0000 1.0000 1.0000
     262.500 0.0000 1.0000 0.5471 0.0000 0.9989 1.0000 1.0000 0.0437 1.0000 1.0000 1.0000
     263.000 0.0000 1.0000 0.5711 0.0000 0.9989 1.0000 1.0000 0.0449 1.0000 1.0000 1.0000
     263.500 0.0000 1.0000 0.5946 0.0000 0.9988 1.0000 1.0000 0.0461 1.0000 1.0000 1.0000
     264.000 0.0000 1.0000 0.6177 0.0000 0.9988 1.0000 1.0000 0.0473 1.0000 1.0000 1.0000
     264.500 0.0000 1.0000 0.6401 0.0000 0.9987 1.0000 1.0000 0.0485 1.0000 1.0000 1.0000
     265.000 0.0000 1.0000 0.6620 0.0000 0.9986 1.0000 1.0000 0.0497 1.0000 1.0000 1.0000
     265.500 0.0000 1.0000 0.6832 0.0000 0.9986 1.0000 1.0000 0.0510 1.0000 1.0000 1.0000
     266.000 0.0000 1.0000 0.7038 0.0000 0.9986 1.0000 1.0000 0.0523 1.0000 1.0000 1.0000
     266.500 0.0000 1.0000 0.7237 0.0000 0.9985 1.0000 1.0000 0.0535 1.0000 1.0000 1.0000
     267.000 0.0000 1.0000 0.7429 0.0000 0.9985 1.0000 1.0000 0.0549 1.0000 1.0000 1.0000
     267.500 0.0000 1.0000 0.7614 0.0000 0.9985 1.0000 1.0000 0.0562 1.0000 1.0000 1.0000
     268.000 0.0000 1.0000 0.7792 0.0000 0.9984 1.0000 1.0000 0.0575 1.0000 1.0000 1.0000
     268.500 0.0000 1.0000 0.7962 0.0000 0.9983 1.0000 1.0000 0.0589 1.0000 1.0000 1.0000
     269.000 0.0000 1.0000 0.8126 0.0000 0.9983 1.0000 1.0000 0.0603 1.0000 1.0000 1.0000
     269.500 0.0000 1.0000 0.8282 0.0000 0.9983 1.0000 1.0000 0.0617 1.0000 1.0000 1.0000
     270.000 0.0000 1.0000 0.8431 0.0000 0.9982 1.0000 1.0000 0.0631 1.0000 1.0000 1.0000
     270.500 0.0000 1.0000 0.8574 0.0000 0.9982 1.0000 1.0000 0.0645 1.0000 1.0000 1.0000
     271.000 0.0000 1.0000 0.8710 0.0000 0.9981 1.0000 1.0000 0.0660 1.0000 1.0000 1.0000
     271.500 0.0000 1.0000 0.8839 0.0000 0.9980 1.0000 1.0000 0.0674 1.0000 1.0000 1.0000
     272.000 0.0000 1.0000 0.8962 0.0000 0.9979 1.0000 1.0000 0.0689 1.0000 1.0000 1.0000
     272.500 0.0000 1.0000 0.9080 0.0000 0.9978 1.0000 1.0000 0.0704 1.0000 1.0000 1.0000
     273.000 0.0000 1.0000 0.9191 0.0000 0.9977 1.0000 1.0000 0.0719 1.0000 1.0000 1.0000
     273.500 0.0000 1.0000 0.9296 0.0000 0.9976 1.0000 1.0000 0.0735 1.0000 1.0000 1.0000
     274.000 0.0000 1.0000 0.9396 0.0000 0.9978 1.0000 1.0000 0.0750 1.0000 1.0000 1.0000
     274.500 0.0000 1.0000 0.9491 0.0000 0.9978 1.0000 1.0000 0.0766 1.0000 1.0000 1.0000
     275.000 0.0000 1.0000 0.9581 0.0000 0.9976 1.0000 1.0000 0.0782 1.0000 1.0000 1.0000
     275.500 0.0000 1.0000 0.9666 0.0000 0.9976 1.0000 1.0000 0.0798 1.0000 1.0000 1.0000
     276.000 0.0000 1.0000 0.9746 0.0000 0.9977 1.0000 1.0000 0.0814 1.0000 1.0000 1.0000
     276.500 0.0000 1.0000 0.9822 0.0000 0.9976 1.0000 1.0000 0.0830 1.0000 1.0000 1.0000
     277.000 0.0000 1.0000 0.9894 0.0000 0.9975 1.0000 1.0000 0.0847 1.0000 1.0000 1.0000
     277.500 0.0000 1.0000 0.9954 0.0000 0.9974 1.0000 1.0000 0.0863 1.0000 1.0000 1.0000
     278.000 0.0000 1.0000 0.9989 0.0000 0.9973 1.0000 1.0000 0.0880 1.0000 1.0000 1.0000
     278.500 0.0000 1.0000 0.9999 0.0000 0.9974 1.0000 1.0000 0.0897 1.0000 1.0000 1.0000
     279.000 0.0000 1.0000 1.0000 0.0000 0.9973 1.0000 1.0000 0.0914 1.0000 1.0000 1.0000
     279.500 0.0000 1.0000 1.0000 0.0000 0.9972 1.0000 1.0000 0.0931 1.0000 1.0000 1.0000
     280.000 0.0000 1.0000 1.0000 0.0000 0.9971 1.0000 1.0000 0.0949 1.0000 1.0000 1.0000
     280.500 0.0000 1.0000 1.0000 0.0000 0.9972 1.0000 1.0000 0.0966 1.0000 1.0000 1.0000
     281.000 0.0000 1.0000 1.0000 0.0000 0.9970 1.0000 1.0000 0.0984 1.0000 1.0000 1.0000
     281.500 0.0000 1.0000 1.0000 0.0000 0.9969 1.0000 1.0000 0.1002 1.0000 1.0000 1.0000
     282.000 0.0000 1.0000 1.0000 0.0000 0.9971 1.0000 1.0000 0.1019 1.0000 1.0000 1.0000
     282.500 0.0000 1.0000 1.0000 0.0000 0.9972 1.0000 1.0000 0.1038 1.0000 1.0000 1.0000
     283.000 0.0000 1.0000 1.0000 0.0000 0.9970 1.0000 1.0000 0.1056 1.0000 1.0000 1.0000
     283.500 0.0000 1.0000 1.0000 0.0000 0.9970 1.0000 1.0000 0.1074 1.0000 1.0000 1.0000
     284.000 0.0000 1.0000 1.0000 0.0000 0.9970 1.0000 1.0000 0.1093 1.0000 1.0000 1.0000
     284.500 0.0000 1.0000 1.0000 0.0000 0.9969 1.0000 1.0000 0.1111 1.0000 1.0000 1.0000
     285.000 0.0000 1.0000 1.0000 0.0000 0.9967 1.0000 1.0000 0.1130 1.0000 1.0000 1.0000
     285.500 0.0000 1.0000 1.0000 0.0000 0.9968 1.0000 1.0000 0.1149 1.0000 1.0000 1.0000
     286.000 0.0000 1.0000 1.0000 0.0000 0.9969 1.0000 1.0000 0.1168 1.0000 1.0000 1.0000
     286.500 0.0000 1.0000 1.0000 0.0000 0.9968 1.0000 1.0000 0.1187 1.0000 1.0000 1.0000
     287.000 0.0000 1.0000 1.0000 0.0000 0.9966 1.0000 1.0000 0.1206 1.0000 1.0000 1.0000
     287.500 0.0000 1.0000 1.0000 0.0000 0.9968 1.0000 1.0000 0.1226 1.0000 1.0000 1.0000
     288.000 0.0000 1.0000 1.0000 0.0000 0.9969 1.0000 1.0000 0.1245 1.0000 1.0000 1.0000
     288.500 0.0000 1.0000 1.0000 0.0000 0.9968 1.0000 1.0000 0.1265 1.0000 1.0000 1.0000
     289.000 0.0000 1.0000 1.0000 0.0000 0.9968 1.0000 1.0000 0.1285 1.0000 1.0000 1.0000
     289.500 0.0000 1.0000 1.0000 0.0000 0.9969 1.0000 1.0000 0.1305 1.0000 1.0000 1.0000
     290.000 0.0000 1.0000 1.0000 0.0000 0.9968 1.0000 1.0000 0.1325 1.0000 1.0000 1.0000
     290.500 0.0000 1.0000 1.0000 0.0000 0.9967 1.0000 1.0000 0.1345 1.0000 1.0000 1.0000
     291.000 0.0000 1.0000 1.0000 0.0000 0.9968 1.0000 1.0000 0.1365 1.0000 1.0000 1.0000
     291.500 0.0000 1.0000 1.0000 0.0000 0.9969 1.0000 1.0000 0.1385 1.0000 1.0000 1.0000
     292.000 0.0000 1.0000 1.0000 0.0000 0.9966 1.0000 1.0000 0.1406 1.0000 1.0000 1.0000
     292.500 0.0000 1.0000 1.0000 0.0000 0.9966 1.0000 1.0000 0.1426 1.0000 1.0000 1.0000
     293.000 0.0000 1.0000 1.0000 0.0000 0.9969 1.0000 1.0000 0.1447 1.0000 1.0000 1.0000
     293.500 0.0000 1.0000 1.0000 0.0000 0.9969 1.0000 1.0000 0.1468 1.0000 1.0000 1.0000
     294.000 0.0000 1.0000 1.0000 0.0000 0.9967 1.0000 1.0000 0.1489 1.0000 1.0000 1.0000
     294.500 0.0000 1.0000 1.0000 0.0000 0.9969 1.0000 1.0000 0.1510 1.0000 1.0000 1.0000
     295.000 0.0000 1.0000 1.0000 0.0000 0.9972 1.0000 1.0000 0.1531 1.0000 1.0000 1.0000
     295.500 0.0000 1.0000 1.0000 0.0000 0.9971 1.0000 1.0000 0.1552 1.0000 1.0000 1.0000
     296.000 0.0000 1.0000 1.0000 0.0000 0.9967 1.0000 1.0000 0.1573 1.0000 1.0000 1.0000
     296.500 0.0000 1.0000 1.0000 0.0000 0.9968 1.0000 1.0000 0.1594 1.0000 1.0000 1.0000
     297.000 0.0000 1.0000 1.0000 0.0001 0.9971 1.0000 1.0000 0.1616 1.0000 1.0000 1.0000
     297.500 0.0000 1.0000 1.0000 0.0001 0.9968 1.0000 1.0000 0.1637 1.0000 1.0000 1.0000
     298.000 0.0000 1.0000 1.0000 0.0002 0.9964 1.0000 1.0000 0.1659 1.0000 1.0000 1.0000
     298.500 0.0001 1.0000 1.0000 0.0004 0.9967 1.0000 1.0000 0.1680 1.0000 1.0000 1.0000
     299.000 0.0001 1.0000 1.0000 0.0007 0.9971 1.0000 1.0000 0.1702 1.0000 1.0000 1.0000
     299.500 0.0002 1.0000 1.0000 0.0011 0.9969 1.0000 1.0000 0.1724 1.0000 1.0000 1.0000
     300.000 0.0003 1.0000 1.0000 0.0018 0.9965 1.0000 1.0000 0.1746 1.0000 1.0000 1.0000
     300.500 0.0005 1.0000 1.0000 0.0026 0.9969 1.0000 1.0000 0.1768 1.0000 1.0000 1.0000
     301.000 0.0007 1.0000 1.0000 0.0041 0.9975 1.0000 1.0000 0.1790 1.0000 1.0000 1.0000
     301.500 0.0011 1.0000 1.0000 0.0059 0.9975 1.0000 1.0000 0.1812 1.0000 1.0000 1.0000
     302.000 0.0014 1.0000 1.0000 0.0078 0.9969 1.0000 1.0000 0.1834 1.0000 1.0000 1.0000
     302.500 0.0020 1.0000 1.0000 0.0110 0.9969 1.0000 1.0000 0.1856 1.0000 1.0000 1.0000
     303.000 0.0029 1.0000 1.0000 0.0156 0.9974 1.0000 1.0000 0.1878 1.0000 1.0000 1.0000
     303.500 0.0038 1.0000 1.0000 0.0202 0.9975 1.0000 1.0000 0.1901 1.0000 1.0000 1.0000
     304.000 0.0047 1.0000 1.0000 0.0245 0.9971 1.0000 1.0000 0.1923 1.0000 1.0000 1.0000
     304.500 0.0062 1.0000 1.0000 0.0317 0.9970 1.0000 1.0000 0.1946 1.0000 1.0000 1.0000
     305.000 0.0084 1.0000 1.0000 0.0426 0.9974 1.0000 1.0000 0.1968 1.0000 1.0000 1.0000
     305.500 0.0105 1.0000 1.0000 0.0528 0.9976 1.0000 1.0000 0.1991 1.0000 1.0000 1.0000
     306.000 0.0121 1.0000 1.0000 0.0603 0.9973 1.0000 1.0000 0.2014 1.0000 1.0000 1.0000
     306.500 0.0144 1.0000 1.0000 0.0708 0.9971 1.0000 1.0000 0.2036 1.0000 1.0000 1.0000
     307.000 0.0184 1.0000 1.0000 0.0893 0.9973 1.0000 1.0000 0.2059 1.0000 1.0000 1.0000
     307.500 0.0227 1.0000 1.0000 0.1093 0.9976 1.0000 1.0000 0.2082 1.0000 1.0000 1.0000
     308.000 0.0257 1.0000 1.0000 0.1226 0.9975 1.0000 1.0000 0.2105 1.0000 1.0000 1.0000
     308.500 0.0286 1.0000 1.0000 0.1345 0.9973 1.0000 1.0000 0.2128 1.0000 1.0000 1.0000
     309.000 0.0329 1.0000 1.0000 0.1530 0.9973 1.0000 1.0000 0.2151 1.0000 1.0000 1.0000
     309.500 0.0396 1.0000 1.0000 0.1825 0.9974 1.0000 1.0000 0.2174 1.0000 1.0000 1.0000
     310.000 0.0457 1.0000 1.0000 0.2085 0.9975 1.0000 1.0000 0.2197 1.0000 1.0000 1.0000
     310.500 0.0499 1.0000 1.0000 0.2254 0.9973 1.0000 1.0000 0.2220 1.0000 1.0000 1.0000
     311.000 0.0541 1.0000 1.0000 0.2420 0.9973 1.0000 1.0000 0.2243 1.0000 1.0000 1.0000
     311.500 0.0595 1.0000 1.0000 0.2629 0.9975 1.0000 1.0000 0.2266 1.0000 1.0000 1.0000
     312.000 0.0680 1.0000 1.0000 0.2973 0.9975 1.0000 1.0000 0.2289 1.0000 1.0000 1.0000
     312.500 0.0769 1.0000 1.0000 0.3331 0.9974 1.0000 1.0000 0.2312 1.0000 1.0000 1.0000
     313.000 0.0823 1.0000 1.0000 0.3532 0.9974 1.0000 1.0000 0.2336 1.0000 1.0000 1.0000
     313.500 0.0851 1.0000 1.0000 0.3615 0.9975 1.0000 1.0000 0.2359 1.0000 1.0000 1.0000
     314.000 0.0930 1.0000 1.0000 0.3910 0.9976 1.0000 1.0000 0.2382 1.0000 1.0000 1.0000
     314.500 0.1053 1.0000 1.0000 0.4385 0.9975 1.0000 1.0000 0.2405 1.0000 1.0000 1.0000
     315.000 0.1121 1.0000 1.0000 0.4629 0.9974 1.0000 1.0000 0.2429 1.0000 1.0000 1.0000
     315.500 0.1138 1.0000 1.0000 0.4652 0.9974 1.0000 1.0000 0.2452 1.0000 1.0000 1.0000
     316.000 0.1212 1.0000 1.0000 0.4907 0.9975 1.0000 1.0000 0.2475 1.0000 1.0000 1.0000
     316.500 0.1333 1.0000 1.0000 0.5344 0.9975 1.0000 1.0000 0.2499 1.0000 1.0000 1.0000
     317.000 0.1393 1.0000 1.0000 0.5539 0.9973 1.0000 1.0000 0.2522 1.0000 1.0000 1.0000
     317.500 0.1408 1.0000 1.0000 0.5545 0.9973 1.0000 1.0000 0.2546 1.0000 1.0000 1.0000
     318.000 0.1485 1.0000 1.0000 0.5793 0.9973 1.0000 1.0000 0.2569 1.0000 1.0000 1.0000
     318.500 0.1638 1.0000 1.0000 0.6331 0.9973 1.0000 1.0000 0.2593 1.0000 1.0000 1.0000
     319.000 0.1740 1.0000 1.0000 0.6666 0.9974 1.0000 1.0000 0.2616 1.0000 1.0000 1.0000
     319.500 0.1726 1.0000 1.0000 0.6559 0.9973 1.0000 1.0000 0.2640 1.0000 1.0000 1.0000
     320.000 0.1733 1.0000 1.0000 0.6524 0.9972 1.0000 1.0000 0.2663 1.0000 1.0000 1.0000
     320.500 0.1869 1.0000 1.0000 0.6972 0.9972 1.0000 1.0000 0.2687 1.0000 1.0000 1.0000
     321.000 0.2036 1.0000 1.0000 0.7530 0.9973 1.0000 1.0000 0.2710 1.0000 1.0000 1.0000
     321.500 0.2089 1.0000 1.0000 0.7661 0.9973 1.0000 1.0000 0.2734 1.0000 1.0000 1.0000
     322.000 0.2025 1.0000 1.0000 0.7368 0.9973 1.0000 1.0000 0.2757 1.0000 1.0000 1.0000
     322.500 0.2009 1.0000 1.0000 0.7243 0.9972 1.0000 1.0000 0.2781 1.0000 1.0000 1.0000
     323.000 0.2137 1.0000 1.0000 0.7638 0.9971 1.0000 1.0000 0.2804 1.0000 1.0000 1.0000
     323.500 0.2329 1.0000 1.0000 0.8258 0.9972 1.0000 1.0000 0.2828 1.0000 1.0000 1.0000
     324.000 0.2418 1.0000 1.0000 0.8505 0.9972 1.0000 1.0000 0.2851 1.0000 1.0000 1.0000
     324.500 0.2371 1.0000 1.0000 0.8273 0.9972 1.0000 1.0000 0.2875 1.0000 1.0000 1.0000
     325.000 0.2315 1.0000 1.0000 0.8012 0.9971 1.0000 1.0000 0.2899 1.0000 1.0000 1.0000
     325.500 0.2381 1.0000 1.0000 0.8172 0.9970 1.0000 1.0000 0.2922 1.0000 1.0000 1.0000
     326.000 0.2528 1.0000 1.0000 0.8607 0.9970 1.0000 1.0000 0.2946 1.0000 1.0000 1.0000
     326.500 0.2653 1.0000 1.0000 0.8961 0.9970 1.0000 1.0000 0.2969 1.0000 1.0000 1.0000
     327.000 0.2678 1.0000 1.0000 0.8975 0.9970 1.0000 1.0000 0.2993 1.0000 1.0000 1.0000
     327.500 0.2628 1.0000 1.0000 0.8741 0.9970 1.0000 1.0000 0.3016 1.0000 1.0000 1.0000
     328.000 0.2597 1.0000 1.0000 0.8569 0.9969 1.0000 1.0000 0.3040 1.0000 1.0000 1.0000
     328.500 0.2693 1.0000 1.0000 0.8815 0.9969 1.0000 1.0000 0.3063 1.0000 1.0000 1.0000
     329.000 0.2841 1.0000 1.0000 0.9231 0.9968 1.0000 1.0000 0.3087 1.0000 1.0000 1.0000
     329.500 0.2924 1.0000 1.0000 0.9431 0.9967 1.0000 1.0000 0.3110 1.0000 1.0000 1.0000
     330.000 0.2923 1.0000 1.0000 0.9359 0.9968 1.0000 1.0000 0.3133 1.0000 1.0000 1.0000
     330.500 0.2880 1.0000 1.0000 0.9154 0.9968 1.0000 1.0000 0.3157 1.0000 1.0000 1.0000
     331.000 0.2869 1.0000 1.0000 0.9049 0.9968 1.0000 1.0000 0.3180 1.0000 1.0000 1.0000
     331.500 0.2933 1.0000 1.0000 0.9185 0.9968 1.0000 1.0000 0.3204 1.0000 1.0000 1.0000
     332.000 0.3045 1.0000 1.0000 0.9468 0.9966 1.0000 1.0000 0.3227 1.0000 1.0000 1.0000
     332.500 0.3120 1.0000 1.0000 0.9635 0.9964 1.0000 1.0000 0.3250 1.0000 1.0000 1.0000
     333.000 0.3135 1.0000 1.0000 0.9613 0.9963 1.0000 1.0000 0.3274 1.0000 1.0000 1.0000
     333.500 0.3108 1.0000 1.0000 0.9462 0.9965 1.0000 1.0000 0.3297 1.0000 1.0000 1.0000
     334.000 0.3112 1.0000 1.0000 0.9405 0.9966 1.0000 1.0000 0.3320 1.0000 1.0000 1.0000
     334.500 0.3186 1.0000 1.0000 0.9560 0.9966 1.0000 1.0000 0.3344 1.0000 1.0000 1.0000
     335.000 0.3264 1.0000 1.0000 0.9728 0.9965 1.0000 1.0000 0.3367 1.0000 1.0000 1.0000
     335.500 0.3316 1.0000 1.0000 0.9817 0.9965 1.0000 1.0000 0.3390 1.0000 1.0000 1.0000
     336.000 0.3338 1.0000 1.0000 0.9814 0.9964 1.0000 1.0000 0.3413 1.0000 1.0000 1.0000
     336.500 0.3333 1.0000 1.0000 0.9736 0.9964 1.0000 1.0000 0.3436 1.0000 1.0000 1.0000
     337.000 0.3320 1.0000 1.0000 0.9632 0.9965 1.0000 1.0000 0.3459 1.0000 1.0000 1.0000
     337.500 0.3332 1.0000 1.0000 0.9601 0.9965 1.0000 1.0000 0.3482 1.0000 1.0000 1.0000
     338.000 0.3393 1.0000 1.0000 0.9714 0.9963 1.0000 1.0000 0.3506 1.0000 1.0000 1.0000
     338.500 0.3457 1.0000 1.0000 0.9836 0.9961 1.0000 1.0000 0.3529 1.0000 1.0000 1.0000
     339.000 0.3498 1.0000 1.0000 0.9888 0.9960 1.0000 1.0000 0.3552 1.0000 1.0000 1.0000
     339.500 0.3516 1.0000 1.0000 0.9875 0.9960 1.0000 1.0000 0.3574 1.0000 1.0000 1.0000
     340.000 0.3517 1.0000 1.0000 0.9816 0.9960 1.0000 1.0000 0.3597 1.0000 1.0000 1.0000
     340.500 0.3532 1.0000 1.0000 0.9797 0.9959 1.0000 1.0000 0.3620 1.0000 1.0000 1.0000
     341.000 0.3576 1.0000 1.0000 0.9856 0.9958 1.0000 1.0000 0.3643 1.0000 1.0000 1.0000
     341.500 0.3619 1.0000 1.0000 0.9914 0.9958 1.0000 1.0000 0.3666 1.0000 1.0000 1.0000
     342.000 0.3652 1.0000 1.0000 0.9940 0.9960 1.0000 1.0000 0.3689 1.0000 1.0000 1.0000
     342.500 0.3677 1.0000 1.0000 0.9946 0.9962 1.0000 1.0000 0.3712 1.0000 1.0000 1.0000
     343.000 0.3695 1.0000 1.0000 0.9933 0.9962 1.0000 1.0000 0.3734 1.0000 1.0000 1.0000
     343.500 0.3705 1.0000 1.0000 0.9900 0.9961 1.0000 1.0000 0.3757 1.0000 1.0000 1.0000
     344.000 0.3712 1.0000 1.0000 0.9860 0.9960 1.0000 1.0000 0.3779 1.0000 1.0000 1.0000
     344.500 0.3737 1.0000 1.0000 0.9870 0.9960 1.0000 1.0000 0.3802 1.0000 1.0000 1.0000
     345.000 0.3777 1.0000 1.0000 0.9915 0.9959 1.0000 1.0000 0.3825 1.0000 1.0000 1.0000
     345.500 0.3810 1.0000 1.0000 0.9946 0.9958 1.0000 1.0000 0.3847 1.0000 1.0000 1.0000
     346.000 0.3839 1.0000 1.0000 0.9964 0.9957 1.0000 1.0000 0.3870 1.0000 1.0000 1.0000
     346.500 0.3865 1.0000 1.0000 0.9975 0.9956 1.0000 1.0000 0.3892 1.0000 1.0000 1.0000
     347.000 0.3886 1.0000 1.0000 0.9972 0.9956 1.0000 1.0000 0.3914 1.0000 1.0000 1.0000
     347.500 0.3905 1.0000 1.0000 0.9964 0.9955 1.0000 1.0000 0.3937 1.0000 1.0000 1.0000
     348.000 0.3928 1.0000 1.0000 0.9971 0.9952 1.0000 1.0000 0.3959 1.0000 1.0000 1.0000
     348.500 0.3955 1.0000 1.0000 0.9983 0.9951 1.0000 1.0000 0.3981 1.0000 1.0000 1.0000
     349.000 0.3981 1.0000 1.0000 0.9989 0.9955 1.0000 1.0000 0.4003 1.0000 1.0000 1.0000
     349.500 0.4005 1.0000 1.0000 0.9991 0.9958 1.0000 1.0000 0.4026 1.0000 1.0000 1.0000
     350.000 0.4027 1.0000 1.0000 0.9991 0.9958 1.0000 1.0000 0.4048 1.0000 1.0000 1.0000
     350.500 0.4048 1.0000 1.0000 0.9991 0.9956 1.0000 1.0000 0.4070 1.0000 1.0000 1.0000
     351.000 0.4067 1.0000 1.0000 0.9986 0.9955 1.0000 1.0000 0.4092 1.0000 1.0000 1.0000
     351.500 0.4085 1.0000 1.0000 0.9974 0.9956 1.0000 1.0000 0.4114 1.0000 1.0000 1.0000
     352.000 0.4106 1.0000 1.0000 0.9972 0.9956 1.0000 1.0000 0.4136 1.0000 1.0000 1.0000
     352.500 0.4132 1.0000 1.0000 0.9981 0.9957 1.0000 1.0000 0.4157 1.0000 1.0000 1.0000
     353.000 0.4157 1.0000 1.0000 0.9990 0.9958 1.0000 1.0000 0.4179 1.0000 1.0000 1.0000
     353.500 0.4180 1.0000 1.0000 0.9995 0.9955 1.0000 1.0000 0.4201 1.0000 1.0000 1.0000
     354.000 0.4200 1.0000 1.0000 0.9996 0.9950 1.0000 1.0000 0.4223 1.0000 1.0000 1.0000
     354.500 0.4221 1.0000 1.0000 0.9996 0.9948 1.0000 1.0000 0.4244 1.0000 1.0000 1.0000
     355.000 0.4243 1.0000 1.0000 0.9996 0.9950 1.0000 1.0000 0.4266 1.0000 1.0000 1.0000
     355.500 0.4265 1.0000 1.0000 0.9995 0.9953 1.0000 1.0000 0.4287 1.0000 1.0000 1.0000
     356.000 0.4286 1.0000 1.0000 0.9995 0.9953 1.0000 1.0000 0.4309 1.0000 1.0000 1.0000
     356.500 0.4306 1.0000 1.0000 0.9993 0.9950 1.0000 1.0000 0.4330 1.0000 1.0000 1.0000
     357.000 0.4325 1.0000 1.0000 0.9991 0.9947 1.0000 1.0000 0.4352 1.0000 1.0000 1.0000
     357.500 0.4346 1.0000 1.0000 0.9992 0.9947 1.0000 1.0000 0.4373 1.0000 1.0000 1.0000
     358.000 0.4369 1.0000 1.0000 0.9993 0.9950 1.0000 1.0000 0.4394 1.0000 1.0000 1.0000
     358.500 0.4392 1.0000 1.0000 0.9995 0.9952 1.0000 1.0000 0.4416 1.0000 1.0000 1.0000
     359.000 0.4414 1.0000 1.0000 0.9995 0.9954 1.0000 1.0000 0.4437 1.0000 1.0000 1.0000
     359.500 0.4435 1.0000 1.0000 0.9994 0.9954 1.0000 1.0000 0.4458 1.0000 1.0000 1.0000
     360.000 0.4455 1.0000 1.0000 0.9993 0.9953 1.0000 1.0000 0.4479 1.0000 1.0000 1.0000
     360.500 0.4475 1.0000 1.0000 0.9994 0.9950 1.0000 1.0000 0.4500 1.0000 1.0000 1.0000
     361.000 0.4496 1.0000 1.0000 0.9995 0.9949 1.0000 1.0000 0.4521 1.0000 1.0000 1.0000
     361.500 0.4517 1.0000 1.0000 0.9996 0.9950 1.0000 1.0000 0.4542 1.0000 1.0000 1.0000
     362.000 0.4538 1.0000 1.0000 0.9996 0.9950 1.0000 1.0000 0.4562 1.0000 1.0000 1.0000
     362.500 0.4559 1.0000 1.0000 0.9997 0.9950 1.0000 1.0000 0.4583 1.0000 1.0000 1.0000
     363.000 0.4580 1.0000 1.0000 0.9998 0.9950 1.0000 1.0000 0.4604 1.0000 1.0000 1.0000
     363.500 0.4601 1.0000 1.0000 0.9998 0.9951 1.0000 1.0000 0.4625 1.0000 1.0000 1.0000
     364.000 0.4621 1.0000 1.0000 0.9998 0.9950 1.0000 1.0000 0.4645 1.0000 1.0000 1.0000
     364.500 0.4640 1.0000 1.0000 0.9997 0.9947 1.0000 1.0000 0.4666 1.0000 1.0000 1.0000
     365.000 0.4659 1.0000 1.0000 0.9998 0.9944 1.0000 1.0000 0.4686 1.0000 1.0000 1.0000
     365.500 0.4680 1.0000 1.0000 0.9999 0.9944 1.0000 1.0000 0.4707 1.0000 1.0000 1.0000
     366.000 0.4702 1.0000 1.0000 1.0000 0.9947 1.0000 1.0000 0.4727 1.0000 1.0000 1.0000
     366.500 0.4723 1.0000 1.0000 1.0000 0.9949 1.0000 1.0000 0.4747 1.0000 1.0000 1.0000
     367.000 0.4742 1.0000 1.0000 1.0000 0.9948 1.0000 1.0000 0.4767 1.0000 1.0000 1.0000
     367.500 0.4762 1.0000 1.0000 1.0000 0.9947 1.0000 1.0000 0.4788 1.0000 1.0000 1.0000
     368.000 0.4782 1.0000 1.0000 1.0000 0.9947 1.0000 1.0000 0.4808 1.0000 1.0000 1.0000
     368.500 0.4803 1.0000 1.0000 1.0000 0.9948 1.0000 1.0000 0.4828 1.0000 1.0000 1.0000
     369.000 0.4823 1.0000 1.0000 1.0000 0.9948 1.0000 1.0000 0.4848 1.0000 1.0000 1.0000
     369.500 0.4842 1.0000 1.0000 1.0000 0.9948 1.0000 1.0000 0.4868 1.0000 1.0000 1.0000
     370.000 0.4862 1.0000 1.0000 1.0000 0.9948 1.0000 1.0000 0.4887 1.0000 1.0000 1.0000
     370.500 0.4882 1.0000 1.0000 1.0000 0.9949 1.0000 1.0000 0.4907 1.0000 1.0000 1.0000
     371.000 0.4901 1.0000 1.0000 1.0000 0.9948 1.0000 1.0000 0.4927 1.0000 1.0000 1.0000
     371.500 0.4919 1.0000 1.0000 1.0000 0.9945 1.0000 1.0000 0.4947 1.0000 1.0000 1.0000
     372.000 0.4938 1.0000 1.0000 1.0000 0.9942 1.0000 1.0000 0.4966 1.0000 1.0000 1.0000
     372.500 0.4957 1.0000 1.0000 1.0000 0.9943 1.0000 1.0000 0.4986 1.0000 1.0000 1.0000
     373.000 0.4978 1.0000 1.0000 1.0000 0.9945 1.0000 1.0000 0.5005 1.0000 1.0000 1.0000
     373.500 0.4998 1.0000 1.0000 1.0000 0.9947 1.0000 1.0000 0.5025 1.0000 1.0000 1.0000
     374.000 0.5018 1.0000 1.0000 1.0000 0.9948 1.0000 1.0000 0.5044 1.0000 1.0000 1.0000
     374.500 0.5037 1.0000 1.0000 1.0000 0.9948 1.0000 1.0000 0.5064 1.0000 1.0000 1.0000
     375.000 0.5055 1.0000 1.0000 1.0000 0.9945 1.0000 1.0000 0.5083 1.0000 1.0000 1.0000
     375.500 0.5072 1.0000 1.0000 1.0000 0.9942 1.0000 1.0000 0.5102 1.0000 1.0000 1.0000
     376.000 0.5090 1.0000 1.0000 1.0000 0.9939 1.0000 1.0000 0.5121 1.0000 1.0000 1.0000
     376.500 0.5109 1.0000 1.0000 1.0000 0.9940 1.0000 1.0000 0.5140 1.0000 1.0000 1.0000
     377.000 0.5130 1.0000 1.0000 1.0000 0.9944 1.0000 1.0000 0.5159 1.0000 1.0000 1.0000
     377.500 0.5151 1.0000 1.0000 1.0000 0.9948 1.0000 1.0000 0.5178 1.0000 1.0000 1.0000
     378.000 0.5170 1.0000 1.0000 1.0000 0.9948 1.0000 1.0000 0.5197 1.0000 1.0000 1.0000
     378.500 0.5188 1.0000 1.0000 1.0000 0.9947 1.0000 1.0000 0.5216 1.0000 1.0000 1.0000
     379.000 0.5205 1.0000 1.0000 1.0000 0.9944 1.0000 1.0000 0.5234 1.0000 1.0000 1.0000
     379.500 0.5222 1.0000 1.0000 1.0000 0.9941 1.0000 1.0000 0.5253 1.0000 1.0000 1.0000
     380.000 0.5240 1.0000 1.0000 1.0000 0.9939 1.0000 1.0000 0.5272 1.0000 1.0000 1.0000
     380.500 0.5259 1.0000 1.0000 1.0000 0.9940 1.0000 1.0000 0.5290 1.0000 1.0000 1.0000
     381.000 0.5278 1.0000 1.0000 1.0000 0.9942 1.0000 1.0000 0.5309 1.0000 1.0000 1.0000
     381.500 0.5297 1.0000 1.0000 1.0000 0.9943 1.0000 1.0000 0.5327 1.0000 1.0000 1.0000
     382.000 0.5316 1.0000 1.0000 1.0000 0.9944 1.0000 1.0000 0.5345 1.0000 1.0000 1.0000
     382.500 0.5335 1.0000 1.0000 1.0000 0.9946 1.0000 1.0000 0.5364 1.0000 1.0000 1.0000
     383.000 0.5353 1.0000 1.0000 1.0000 0.9945 1.0000 1.0000 0.5382 1.0000 1.0000 1.0000
     383.500 0.5370 1.0000 1.0000 1.0000 0.9944 1.0000 1.0000 0.5400 1.0000 1.0000 1.0000
     384.000 0.5387 1.0000 1.0000 1.0000 0.9942 1.0000 1.0000 0.5418 1.0000 1.0000 1.0000
     384.500 0.5404 1.0000 1.0000 1.0000 0.9941 1.0000 1.0000 0.5436 1.0000 1.0000 1.0000
     385.000 0.5422 1.0000 1.0000 1.0000 0.9941 1.0000 1.0000 0.5454 1.0000 1.0000 1.0000
     385.500 0.5440 1.0000 1.0000 1.0000 0.9942 1.0000 1.0000 0.5472 1.0000 1.0000 1.0000
     386.000 0.5459 1.0000 1.0000 1.0000 0.9944 1.0000 1.0000 0.5490 1.0000 1.0000 1.0000
     386.500 0.5477 1.0000 1.0000 1.0000 0.9944 1.0000 1.0000 0.5508 1.0000 1.0000 1.0000
     387.000 0.5494 1.0000 1.0000 1.0000 0.9943 1.0000 1.0000 0.5525 1.0000 1.0000 1.0000
     387.500 0.5511 1.0000 1.0000 1.0000 0.9941 1.0000 1.0000 0.5543 1.0000 1.0000 1.0000
     388.000 0.5528 1.0000 1.0000 1.0000 0.9942 1.0000 1.0000 0.5561 1.0000 1.0000 1.0000
     388.500 0.5546 1.0000 1.0000 1.0000 0.9942 1.0000 1.0000 0.5578 1.0000 1.0000 1.0000
     389.000 0.5562 1.0000 1.0000 1.0000 0.9940 1.0000 1.0000 0.5596 1.0000 1.0000 1.0000
     389.500 0.5580 1.0000 1.0000 1.0000 0.9940 1.0000 1.0000 0.5613 1.0000 1.0000 1.0000
     390.000 0.5597 1.0000 1.0000 1.0000 0.9941 1.0000 1.0000 0.5630 1.0000 1.0000 1.0000
     390.500 0.5614 1.0000 1.0000 1.0000 0.9941 1.0000 1.0000 0.5648 1.0000 1.0000 1.0000
     391.000 0.5631 1.0000 1.0000 1.0000 0.9940 1.0000 1.0000 0.5665 1.0000 1.0000 1.0000
     391.500 0.5647 1.0000 1.0000 1.0000 0.9939 1.0000 1.0000 0.5682 1.0000 1.0000 1.0000
     392.000 0.5664 1.0000 1.0000 1.0000 0.9939 1.0000 1.0000 0.5699 1.0000 1.0000 1.0000
     392.500 0.5682 1.0000 1.0000 1.0000 0.9941 1.0000 1.0000 0.5716 1.0000 1.0000 1.0000
     393.000 0.5701 1.0000 1.0000 1.0000 0.9944 1.0000 1.0000 0.5733 1.0000 1.0000 1.0000
     393.500 0.5718 1.0000 1.0000 1.0000 0.9945 1.0000 1.0000 0.5750 1.0000 1.0000 1.0000
     394.000 0.5735 1.0000 1.0000 1.0000 0.9945 1.0000 1.0000 0.5767 1.0000 1.0000 1.0000
     394.500 0.5752 1.0000 1.0000 1.0000 0.9945 1.0000 1.0000 0.5784 1.0000 1.0000 1.0000
     395.000 0.5766 1.0000 1.0000 1.0000 0.9942 1.0000 1.0000 0.5800 1.0000 1.0000 1.0000
     395.500 0.5781 1.0000 1.0000 1.0000 0.9939 1.0000 1.0000 0.5817 1.0000 1.0000 1.0000
     396.000 0.5799 1.0000 1.0000 1.0000 0.9940 1.0000 1.0000 0.5833 1.0000 1.0000 1.0000
     396.500 0.5817 1.0000 1.0000 1.0000 0.9943 1.0000 1.0000 0.5850 1.0000 1.0000 1.0000
     397.000 0.5834 1.0000 1.0000 1.0000 0.9944 1.0000 1.0000 0.5866 1.0000 1.0000 1.0000
     397.500 0.5849 1.0000 1.0000 1.0000 0.9942 1.0000 1.0000 0.5883 1.0000 1.0000 1.0000
     398.000 0.5862 1.0000 1.0000 1.0000 0.9938 1.0000 1.0000 0.5899 1.0000 1.0000 1.0000
     398.500 0.5879 1.0000 1.0000 1.0000 0.9938 1.0000 1.0000 0.5915 1.0000 1.0000 1.0000
     399.000 0.5896 1.0000 1.0000 1.0000 0.9941 1.0000 1.0000 0.5932 1.0000 1.0000 1.0000
     399.500 0.5912 1.0000 1.0000 1.0000 0.9940 1.0000 1.0000 0.5948 1.0000 1.0000 1.0000
     400.000 0.5926 1.0000 1.0000 1.0000 0.9936 1.0000 1.0000 0.5964 1.0000 1.0000 1.0000
     400.500 0.5941 1.0000 1.0000 1.0000 0.9935 1.0000 1.0000 0.5980 1.0000 1.0000 1.0000
     401.000 0.5958 1.0000 1.0000 1.0000 0.9937 1.0000 1.0000 0.5996 1.0000 1.0000 1.0000
     401.500 0.5975 1.0000 1.0000 1.0000 0.9940 1.0000 1.0000 0.6012 1.0000 1.0000 1.0000
     402.000 0.5993 1.0000 1.0000 1.0000 0.9943 1.0000 1.0000 0.6027 1.0000 1.0000 1.0000
     402.500 0.6011 1.0000 1.0000 1.0000 0.9946 1.0000 1.0000 0.6043 1.0000 1.0000 1.0000
     403.000 0.6026 1.0000 1.0000 1.0000 0.9946 1.0000 1.0000 0.6059 1.0000 1.0000 1.0000
     403.500 0.6041 1.0000 1.0000 1.0000 0.9944 1.0000 1.0000 0.6075 1.0000 1.0000 1.0000
     404.000 0.6055 1.0000 1.0000 1.0000 0.9942 1.0000 1.0000 0.6090 1.0000 1.0000 1.0000
     404.500 0.6069 1.0000 1.0000 1.0000 0.9940 1.0000 1.0000 0.6106 1.0000 1.0000 1.0000
     405.000 0.6084 1.0000 1.0000 1.0000 0.9939 1.0000 1.0000 0.6121 1.0000 1.0000 1.0000
     405.500 0.6100 1.0000 1.0000 1.0000 0.9941 1.0000 1.0000 0.6137 1.0000 1.0000 1.0000
     406.000 0.6118 1.0000 1.0000 1.0000 0.9945 1.0000 1.0000 0.6152 1.0000 1.0000 1.0000
     406.500 0.6135 1.0000 1.0000 1.0000 0.9948 1.0000 1.0000 0.6167 1.0000 1.0000 1.0000
     407.000 0.6151 1.0000 1.0000 1.0000 0.9950 1.0000 1.0000 0.6182 1.0000 1.0000 1.0000
     407.500 0.6164 1.0000 1.0000 0.9999 0.9946 1.0000 1.0000 0.6197 1.0000 1.0000 1.0000
     408.000 0.6174 1.0000 1.0000 0.9999 0.9939 1.0000 1.0000 0.6213 1.0000 1.0000 1.0000
     408.500 0.6187 1.0000 1.0000 0.9999 0.9935 1.0000 1.0000 0.6228 1.0000 1.0000 1.0000
     409.000 0.6203 1.0000 1.0000 0.9999 0.9937 1.0000 1.0000 0.6243 1.0000 1.0000 1.0000
     409.500 0.6218 1.0000 1.0000 0.9999 0.9939 1.0000 1.0000 0.6258 1.0000 1.0000 1.0000
     410.000 0.6233 1.0000 1.0000 0.9999 0.9938 1.0000 1.0000 0.6272 1.0000 1.0000 1.0000
     410.500 0.6247 1.0000 1.0000 0.9998 0.9937 1.0000 1.0000 0.6287 1.0000 1.0000 1.0000
     411.000 0.6264 1.0000 1.0000 0.9998 0.9941 1.0000 1.0000 0.6302 1.0000 1.0000 1.0000
     411.500 0.6281 1.0000 1.0000 0.9998 0.9945 1.0000 1.0000 0.6317 1.0000 1.0000 1.0000
     412.000 0.6296 1.0000 1.0000 0.9999 0.9946 1.0000 1.0000 0.6331 1.0000 1.0000 1.0000
     412.500 0.6309 1.0000 1.0000 0.9999 0.9943 1.0000 1.0000 0.6346 1.0000 1.0000 1.0000
     413.000 0.6319 1.0000 1.0000 0.9999 0.9936 1.0000 1.0000 0.6360 1.0000 1.0000 1.0000
     413.500 0.6331 1.0000 1.0000 0.9999 0.9933 1.0000 1.0000 0.6375 1.0000 1.0000 1.0000
     414.000 0.6349 1.0000 1.0000 0.9999 0.9938 1.0000 1.0000 0.6389 1.0000 1.0000 1.0000
     414.500 0.6366 1.0000 1.0000 0.9998 0.9943 1.0000 1.0000 0.6403 1.0000 1.0000 1.0000
     415.000 0.6381 1.0000 1.0000 0.9998 0.9945 1.0000 1.0000 0.6418 1.0000 1.0000 1.0000
     415.500 0.6397 1.0000 1.0000 0.9998 0.9948 1.0000 1.0000 0.6432 1.0000 1.0000 1.0000
     416.000 0.6413 1.0000 1.0000 0.9998 0.9951 1.0000 1.0000 0.6446 1.0000 1.0000 1.0000
     416.500 0.6427 1.0000 1.0000 0.9998 0.9951 1.0000 1.0000 0.6460 1.0000 1.0000 1.0000
     417.000 0.6440 1.0000 1.0000 0.9997 0.9950 1.0000 1.0000 0.6474 1.0000 1.0000 1.0000
     417.500 0.6452 1.0000 1.0000 0.9997 0.9947 1.0000 1.0000 0.6488 1.0000 1.0000 1.0000
     418.000 0.6465 1.0000 1.0000 0.9997 0.9946 1.0000 1.0000 0.6502 1.0000 1.0000 1.0000
     418.500 0.6478 1.0000 1.0000 0.9997 0.9945 1.0000 1.0000 0.6516 1.0000 1.0000 1.0000
     419.000 0.6492 1.0000 1.0000 0.9997 0.9945 1.0000 1.0000 0.6530 1.0000 1.0000 1.0000
     419.500 0.6504 1.0000 1.0000 0.9997 0.9943 1.0000 1.0000 0.6543 1.0000 1.0000 1.0000
     420.000 0.6517 1.0000 1.0000 0.9997 0.9942 1.0000 1.0000 0.6557 1.0000 1.0000 1.0000
     420.500 0.6531 1.0000 1.0000 0.9997 0.9942 1.0000 1.0000 0.6571 1.0000 1.0000 1.0000
     421.000 0.6544 1.0000 1.0000 0.9997 0.9942 1.0000 1.0000 0.6584 1.0000 1.0000 1.0000
     421.500 0.6558 1.0000 1.0000 0.9997 0.9942 1.0000 1.0000 0.6598 1.0000 1.0000 1.0000
     422.000 0.6570 1.0000 1.0000 0.9996 0.9941 1.0000 1.0000 0.6611 1.0000 1.0000 1.0000
     422.500 0.6583 1.0000 1.0000 0.9996 0.9941 1.0000 1.0000 0.6625 1.0000 1.0000 1.0000
     423.000 0.6596 1.0000 1.0000 0.9996 0.9942 1.0000 1.0000 0.6638 1.0000 1.0000 1.0000
     423.500 0.6608 1.0000 1.0000 0.9995 0.9940 1.0000 1.0000 0.6651 1.0000 1.0000 1.0000
     424.000 0.6618 1.0000 1.0000 0.9994 0.9936 1.0000 1.0000 0.6665 1.0000 1.0000 1.0000
     424.500 0.6630 1.0000 1.0000 0.9994 0.9934 1.0000 1.0000 0.6678 1.0000 1.0000 1.0000
     425.000 0.6646 1.0000 1.0000 0.9993 0.9939 1.0000 1.0000 0.6691 1.0000 1.0000 1.0000
     425.500 0.6663 1.0000 1.0000 0.9993 0.9946 1.0000 1.0000 0.6704 1.0000 1.0000 1.0000
     426.000 0.6679 1.0000 1.0000 0.9992 0.9951 1.0000 1.0000 0.6717 1.0000 1.0000 1.0000
     426.500 0.6691 1.0000 1.0000 0.9992 0.9950 1.0000 1.0000 0.6730 1.0000 1.0000 1.0000
     427.000 0.6700 1.0000 1.0000 0.9992 0.9944 1.0000 1.0000 0.6743 1.0000 1.0000 1.0000
     427.500 0.6710 1.0000 1.0000 0.9993 0.9939 1.0000 1.0000 0.6756 1.0000 1.0000 1.0000
     428.000 0.6722 1.0000 1.0000 0.9993 0.9939 1.0000 1.0000 0.6769 1.0000 1.0000 1.0000
     428.500 0.6738 1.0000 1.0000 0.9993 0.9943 1.0000 1.0000 0.6781 1.0000 1.0000 1.0000
     429.000 0.6755 1.0000 1.0000 0.9993 0.9949 1.0000 1.0000 0.6794 1.0000 1.0000 1.0000
     429.500 0.6769 1.0000 1.0000 0.9993 0.9951 1.0000 1.0000 0.6807 1.0000 1.0000 1.0000
     430.000 0.6778 1.0000 1.0000 0.9993 0.9947 1.0000 1.0000 0.6819 1.0000 1.0000 1.0000
     430.500 0.6786 1.0000 1.0000 0.9993 0.9940 1.0000 1.0000 0.6832 1.0000 1.0000 1.0000
     431.000 0.6797 1.0000 1.0000 0.9993 0.9939 1.0000 1.0000 0.6844 1.0000 1.0000 1.0000
     431.500 0.6812 1.0000 1.0000 0.9992 0.9942 1.0000 1.0000 0.6857 1.0000 1.0000 1.0000
     432.000 0.6828 1.0000 1.0000 0.9992 0.9948 1.0000 1.0000 0.6869 1.0000 1.0000 1.0000
     432.500 0.6841 1.0000 1.0000 0.9991 0.9950 1.0000 1.0000 0.6881 1.0000 1.0000 1.0000
     433.000 0.6851 1.0000 1.0000 0.9991 0.9947 1.0000 1.0000 0.6894 1.0000 1.0000 1.0000
     433.500 0.6860 1.0000 1.0000 0.9990 0.9943 1.0000 1.0000 0.6906 1.0000 1.0000 1.0000
     434.000 0.6870 1.0000 1.0000 0.9990 0.9940 1.0000 1.0000 0.6918 1.0000 1.0000 1.0000
     434.500 0.6880 1.0000 1.0000 0.9990 0.9937 1.0000 1.0000 0.6930 1.0000 1.0000 1.0000
     435.000 0.6888 1.0000 1.0000 0.9990 0.9932 1.0000 1.0000 0.6942 1.0000 1.0000 1.0000
     435.500 0.6902 1.0000 1.0000 0.9990 0.9934 1.0000 1.0000 0.6954 1.0000 1.0000 1.0000
     436.000 0.6917 1.0000 1.0000 0.9990 0.9940 1.0000 1.0000 0.6966 1.0000 1.0000 1.0000
     436.500 0.6932 1.0000 1.0000 0.9990 0.9945 1.0000 1.0000 0.6978 1.0000 1.0000 1.0000
     437.000 0.6948 1.0000 1.0000 0.9990 0.9951 1.0000 1.0000 0.6990 1.0000 1.0000 1.0000
     437.500 0.6962 1.0000 1.0000 0.9989 0.9955 1.0000 1.0000 0.7002 1.0000 1.0000 1.0000
     438.000 0.6974 1.0000 1.0000 0.9988 0.9955 1.0000 1.0000 0.7014 1.0000 1.0000 1.0000
     438.500 0.6979 1.0000 1.0000 0.9987 0.9946 1.0000 1.0000 0.7025 1.0000 1.0000 1.0000
     439.000 0.6982 1.0000 1.0000 0.9986 0.9935 1.0000 1.0000 0.7037 1.0000 1.0000 1.0000
     439.500 0.6991 1.0000 1.0000 0.9984 0.9933 1.0000 1.0000 0.7049 1.0000 1.0000 1.0000
     440.000 0.7005 1.0000 1.0000 0.9983 0.9939 1.0000 1.0000 0.7060 1.0000 1.0000 1.0000
     440.500 0.7021 1.0000 1.0000 0.9982 0.9947 1.0000 1.0000 0.7072 1.0000 1.0000 1.0000
     441.000 0.7036 1.0000 1.0000 0.9980 0.9954 1.0000 1.0000 0.7083 1.0000 1.0000 1.0000
     441.500 0.7049 0.9999 1.0000 0.9979 0.9958 1.0000 1.0000 0.7095 1.0000 1.0000 1.0000
     442.000 0.7060 0.9998 1.0000 0.9978 0.9960 1.0000 1.0000 0.7106 1.0000 1.0000 1.0000
     442.500 0.7068 0.9994 1.0000 0.9978 0.9959 1.0000 1.0000 0.7117 1.0000 1.0000 1.0000
     443.000 0.7076 0.9993 1.0000 0.9977 0.9956 1.0000 1.0000 0.7129 1.0000 1.0000 1.0000
     443.500 0.7088 0.9996 1.0000 0.9977 0.9954 1.0000 1.0000 0.7140 1.0000 1.0000 1.0000
     444.000 0.7097 0.9997 1.0000 0.9977 0.9951 1.0000 1.0000 0.7151 1.0000 1.0000 1.0000
     444.500 0.7103 0.9996 1.0000 0.9977 0.9944 1.0000 1.0000 0.7162 1.0000 1.0000 1.0000
     445.000 0.7110 0.9996 1.0000 0.9978 0.9937 1.0000 1.0000 0.7173 1.0000 1.0000 1.0000
     445.500 0.7122 0.9996 1.0000 0.9979 0.9939 1.0000 1.0000 0.7184 1.0000 1.0000 1.0000
     446.000 0.7139 0.9997 1.0000 0.9979 0.9946 1.0000 1.0000 0.7195 1.0000 1.0000 1.0000
     446.500 0.7155 0.9998 1.0000 0.9980 0.9952 1.0000 1.0000 0.7206 1.0000 1.0000 1.0000
     447.000 0.7168 0.9999 1.0000 0.9980 0.9954 1.0000 1.0000 0.7217 1.0000 1.0000 1.0000
     447.500 0.7177 0.9999 1.0000 0.9980 0.9950 1.0000 1.0000 0.7228 1.0000 1.0000 1.0000
     448.000 0.7180 1.0000 1.0000 0.9979 0.9939 1.0000 1.0000 0.7239 1.0000 1.0000 1.0000
     448.500 0.7185 1.0000 1.0000 0.9978 0.9933 1.0000 1.0000 0.7249 1.0000 1.0000 1.0000
     449.000 0.7200 1.0000 1.0000 0.9977 0.9939 1.0000 1.0000 0.7260 1.0000 1.0000 1.0000
     449.500 0.7216 1.0000 1.0000 0.9976 0.9948 1.0000 1.0000 0.7271 1.0000 1.0000 1.0000
     450.000 0.7230 1.0000 1.0000 0.9975 0.9954 1.0000 1.0000 0.7281 1.0000 1.0000 1.0000
     450.500 0.7240 1.0000 1.0000 0.9974 0.9955 1.0000 1.0000 0.7292 1.0000 1.0000 1.0000
     451.000 0.7249 1.0000 1.0000 0.9974 0.9953 1.0000 1.0000 0.7302 1.0000 1.0000 1.0000
     451.500 0.7260 1.0000 1.0000 0.9973 0.9953 1.0000 1.0000 0.7313 1.0000 1.0000 1.0000
     452.000 0.7270 1.0000 1.0000 0.9973 0.9954 1.0000 1.0000 0.7323 1.0000 1.0000 1.0000
     452.500 0.7279 1.0000 1.0000 0.9973 0.9953 1.0000 1.0000 0.7334 1.0000 1.0000 1.0000
     453.000 0.7289 1.0000 1.0000 0.9973 0.9952 1.0000 1.0000 0.7344 1.0000 1.0000 1.0000
     453.500 0.7300 1.0000 1.0000 0.9973 0.9953 1.0000 1.0000 0.7354 1.0000 1.0000 1.0000
     454.000 0.7312 1.0000 1.0000 0.9973 0.9955 1.0000 1.0000 0.7365 1.0000 1.0000 1.0000
     454.500 0.7323 1.0000 1.0000 0.9972 0.9958 1.0000 1.0000 0.7375 1.0000 1.0000 1.0000
     455.000 0.7332 1.0000 1.0000 0.9972 0.9956 1.0000 1.0000 0.7385 1.0000 1.0000 1.0000
     455.500 0.7340 1.0000 1.0000 0.9970 0.9954 1.0000 1.0000 0.7395 1.0000 1.0000 1.0000
     456.000 0.7349 1.0000 1.0000 0.9969 0.9955 1.0000 1.0000 0.7405 1.0000 1.0000 1.0000
     456.500 0.7359 1.0000 1.0000 0.9967 0.9957 1.0000 1.0000 0.7415 1.0000 1.0000 1.0000
     457.000 0.7369 1.0000 1.0000 0.9964 0.9960 1.0000 1.0000 0.7425 1.0000 1.0000 1.0000
     457.500 0.7376 1.0000 1.0000 0.9961 0.9959 1.0000 1.0000 0.7435 1.0000 1.0000 1.0000
     458.000 0.7379 1.0000 1.0000 0.9958 0.9953 1.0000 1.0000 0.7445 1.0000 1.0000 1.0000
     458.500 0.7384 1.0000 1.0000 0.9955 0.9950 1.0000 1.0000 0.7455 1.0000 1.0000 1.0000
     459.000 0.7393 1.0000 1.0000 0.9953 0.9951 1.0000 1.0000 0.7465 1.0000 1.0000 1.0000
     459.500 0.7403 1.0000 1.0000 0.9950 0.9955 1.0000 1.0000 0.7475 1.0000 1.0000 1.0000
     460.000 0.7412 1.0000 1.0000 0.9947 0.9956 1.0000 1.0000 0.7484 1.0000 1.0000 1.0000
     460.500 0.7418 1.0000 1.0000 0.9945 0.9954 1.0000 1.0000 0.7494 1.0000 1.0000 1.0000
     461.000 0.7425 1.0000 1.0000 0.9943 0.9952 1.0000 1.0000 0.7504 1.0000 1.0000 1.0000
     461.500 0.7434 1.0000 1.0000 0.9942 0.9952 1.0000 1.0000 0.7513 1.0000 1.0000 1.0000
     462.000 0.7446 1.0000 1.0000 0.9941 0.9956 1.0000 1.0000 0.7523 1.0000 1.0000 1.0000
     462.500 0.7457 1.0000 1.0000 0.9941 0.9959 1.0000 1.0000 0.7532 1.0000 1.0000 1.0000
     463.000 0.7465 1.0000 1.0000 0.9941 0.9957 1.0000 1.0000 0.7542 1.0000 1.0000 1.0000
     463.500 0.7470 1.0000 1.0000 0.9942 0.9949 1.0000 1.0000 0.7551 1.0000 1.0000 1.0000
     464.000 0.7477 1.0000 1.0000 0.9944 0.9946 1.0000 1.0000 0.7560 1.0000 1.0000 1.0000
     464.500 0.7491 1.0000 1.0000 0.9946 0.9949 1.0000 1.0000 0.7570 1.0000 1.0000 1.0000
     465.000 0.7505 1.0000 1.0000 0.9947 0.9955 1.0000 1.0000 0.7579 1.0000 1.0000 1.0000
     465.500 0.7519 1.0000 1.0000 0.9948 0.9960 1.0000 1.0000 0.7589 1.0000 1.0000 1.0000
     466.000 0.7533 1.0000 1.0000 0.9949 0.9965 1.0000 1.0000 0.7598 1.0000 1.0000 1.0000
     466.500 0.7543 1.0000 1.0000 0.9948 0.9967 1.0000 1.0000 0.7607 1.0000 1.0000 1.0000
     467.000 0.7548 1.0000 1.0000 0.9947 0.9963 1.0000 1.0000 0.7617 1.0000 1.0000 1.0000
     467.500 0.7551 1.0000 1.0000 0.9946 0.9958 1.0000 1.0000 0.7625 1.0000 1.0000 1.0000
     468.000 0.7558 0.9999 1.0000 0.9944 0.9957 1.0000 1.0000 0.7634 1.0000 1.0000 1.0000
     468.500 0.7567 0.9999 1.0000 0.9943 0.9958 1.0000 1.0000 0.7643 1.0000 1.0000 1.0000
     469.000 0.7577 0.9999 1.0000 0.9941 0.9962 1.0000 1.0000 0.7652 1.0000 1.0000 1.0000
     469.500 0.7586 0.9998 1.0000 0.9939 0.9964 1.0000 1.0000 0.7661 1.0000 1.0000 1.0000
     470.000 0.7594 0.9997 1.0000 0.9938 0.9965 1.0000 1.0000 0.7670 1.0000 1.0000 1.0000
     470.500 0.7603 0.9998 1.0000 0.9937 0.9965 1.0000 1.0000 0.7679 1.0000 1.0000 1.0000
     471.000 0.7612 0.9998 1.0000 0.9937 0.9966 1.0000 1.0000 0.7688 1.0000 1.0000 1.0000
     471.500 0.7621 0.9998 1.0000 0.9936 0.9967 1.0000 1.0000 0.7697 1.0000 1.0000 1.0000
     472.000 0.7629 0.9998 1.0000 0.9936 0.9966 1.0000 1.0000 0.7706 1.0000 1.0000 1.0000
     472.500 0.7637 0.9998 1.0000 0.9936 0.9965 1.0000 1.0000 0.7714 1.0000 1.0000 1.0000
     473.000 0.7645 0.9999 1.0000 0.9936 0.9965 1.0000 1.0000 0.7723 1.0000 1.0000 1.0000
     473.500 0.7652 0.9999 1.0000 0.9935 0.9963 1.0000 1.0000 0.7732 1.0000 1.0000 1.0000
     474.000 0.7655 0.9999 1.0000 0.9933 0.9957 1.0000 1.0000 0.7740 1.0000 1.0000 1.0000
     474.500 0.7659 1.0000 1.0000 0.9931 0.9953 1.0000 1.0000 0.7749 1.0000 1.0000 1.0000
     475.000 0.7666 1.0000 1.0000 0.9928 0.9954 1.0000 1.0000 0.7758 1.0000 1.0000 1.0000
     475.500 0.7675 1.0000 1.0000 0.9924 0.9958 1.0000 1.0000 0.7766 1.0000 1.0000 1.0000
     476.000 0.7682 1.0000 1.0000 0.9920 0.9961 1.0000 1.0000 0.7775 1.0000 1.0000 1.0000
     476.500 0.7688 1.0000 1.0000 0.9915 0.9963 1.0000 1.0000 0.7783 1.0000 1.0000 1.0000
     477.000 0.7694 1.0000 1.0000 0.9910 0.9964 1.0000 1.0000 0.7791 1.0000 1.0000 1.0000
     477.500 0.7699 1.0000 1.0000 0.9905 0.9966 1.0000 1.0000 0.7800 1.0000 1.0000 1.0000
     478.000 0.7703 1.0000 1.0000 0.9899 0.9966 1.0000 1.0000 0.7808 1.0000 1.0000 1.0000
     478.500 0.7707 1.0000 1.0000 0.9894 0.9966 1.0000 1.0000 0.7816 1.0000 1.0000 1.0000
     479.000 0.7709 1.0000 1.0000 0.9888 0.9963 1.0000 1.0000 0.7825 1.0000 1.0000 1.0000
     479.500 0.7709 1.0000 1.0000 0.9882 0.9960 1.0000 1.0000 0.7833 1.0000 1.0000 1.0000
     480.000 0.7714 1.0000 1.0000 0.9877 0.9960 1.0000 1.0000 0.7841 1.0000 1.0000 1.0000
     480.500 0.7720 1.0000 1.0000 0.9872 0.9963 1.0000 1.0000 0.7849 1.0000 1.0000 1.0000
     481.000 0.7726 1.0000 1.0000 0.9868 0.9964 1.0000 1.0000 0.7857 1.0000 1.0000 1.0000
     481.500 0.7731 1.0000 1.0000 0.9865 0.9963 1.0000 1.0000 0.7865 1.0000 1.0000 1.0000
     482.000 0.7738 1.0000 1.0000 0.9863 0.9964 1.0000 1.0000 0.7873 1.0000 1.0000 1.0000
     482.500 0.7747 1.0000 1.0000 0.9862 0.9968 1.0000 1.0000 0.7881 1.0000 1.0000 1.0000
     483.000 0.7758 1.0000 1.0000 0.9862 0.9971 1.0000 1.0000 0.7889 1.0000 1.0000 1.0000
     483.500 0.7768 1.0000 1.0000 0.9863 0.9973 1.0000 1.0000 0.7897 1.0000 1.0000 1.0000
     484.000 0.7778 1.0000 1.0000 0.9865 0.9973 1.0000 1.0000 0.7905 1.0000 1.0000 1.0000
     484.500 0.7786 0.9999 1.0000 0.9868 0.9972 1.0000 1.0000 0.7913 1.0000 1.0000 1.0000
     485.000 0.7794 0.9998 1.0000 0.9871 0.9971 1.0000 1.0000 0.7921 1.0000 1.0000 1.0000
     485.500 0.7803 0.9998 1.0000 0.9873 0.9971 1.0000 1.0000 0.7929 1.0000 1.0000 1.0000
     486.000 0.7812 0.9999 1.0000 0.9874 0.9970 1.0000 1.0000 0.7936 1.0000 1.0000 1.0000
     486.500 0.7821 0.9999 1.0000 0.9876 0.9970 1.0000 1.0000 0.7944 1.0000 1.0000 1.0000
     487.000 0.7830 0.9999 1.0000 0.9876 0.9972 1.0000 1.0000 0.7952 1.0000 1.0000 1.0000
     487.500 0.7838 0.9999 1.0000 0.9876 0.9972 1.0000 1.0000 0.7960 1.0000 1.0000 1.0000
     488.000 0.7843 0.9999 1.0000 0.9875 0.9970 1.0000 1.0000 0.7967 1.0000 1.0000 1.0000
     488.500 0.7843 0.9999 1.0000 0.9873 0.9963 1.0000 1.0000 0.7975 1.0000 1.0000 1.0000
     489.000 0.7845 0.9999 1.0000 0.9871 0.9958 1.0000 1.0000 0.7982 1.0000 1.0000 1.0000
     489.500 0.7853 0.9999 1.0000 0.9868 0.9961 1.0000 1.0000 0.7990 1.0000 1.0000 1.0000
     490.000 0.7861 0.9999 1.0000 0.9865 0.9965 1.0000 1.0000 0.7997 1.0000 1.0000 1.0000
     490.500 0.7871 1.0000 1.0000 0.9863 0.9970 1.0000 1.0000 0.8005 1.0000 1.0000 1.0000
     491.000 0.7880 1.0000 1.0000 0.9861 0.9974 1.0000 1.0000 0.8012 1.0000 1.0000 1.0000
     491.500 0.7887 1.0000 1.0000 0.9859 0.9976 1.0000 1.0000 0.8020 1.0000 1.0000 1.0000
     492.000 0.7893 1.0000 1.0000 0.9858 0.9975 1.0000 1.0000 0.8027 1.0000 1.0000 1.0000
     492.500 0.7899 1.0000 1.0000 0.9857 0.9973 1.0000 1.0000 0.8034 1.0000 1.0000 1.0000
     493.000 0.7904 1.0000 1.0000 0.9857 0.9972 1.0000 1.0000 0.8042 1.0000 1.0000 1.0000
     493.500 0.7908 1.0000 1.0000 0.9855 0.9970 1.0000 1.0000 0.8049 1.0000 1.0000 1.0000
     494.000 0.7912 1.0000 1.0000 0.9854 0.9967 1.0000 1.0000 0.8056 1.0000 1.0000 1.0000
     494.500 0.7917 1.0000 1.0000 0.9852 0.9965 1.0000 1.0000 0.8063 1.0000 1.0000 1.0000
     495.000 0.7922 1.0000 1.0000 0.9850 0.9966 1.0000 1.0000 0.8071 1.0000 1.0000 1.0000
     495.500 0.7928 1.0000 1.0000 0.9847 0.9966 1.0000 1.0000 0.8078 1.0000 1.0000 1.0000
     496.000 0.7932 1.0000 1.0000 0.9844 0.9966 1.0000 1.0000 0.8085 1.0000 1.0000 1.0000
     496.500 0.7935 1.0000 1.0000 0.9839 0.9966 1.0000 1.0000 0.8092 1.0000 1.0000 1.0000
     497.000 0.7939 1.0000 1.0000 0.9834 0.9967 1.0000 1.0000 0.8099 1.0000 1.0000 1.0000
     497.500 0.7944 1.0000 1.0000 0.9829 0.9971 1.0000 1.0000 0.8106 1.0000 1.0000 1.0000
     498.000 0.7950 1.0000 1.0000 0.9823 0.9976 1.0000 1.0000 0.8113 1.0000 1.0000 1.0000
     498.500 0.7954 1.0000 1.0000 0.9816 0.9979 1.0000 1.0000 0.8120 1.0000 1.0000 1.0000
     499.000 0.7956 1.0000 1.0000 0.9809 0.9981 1.0000 1.0000 0.8127 1.0000 1.0000 1.0000
     499.500 0.7957 1.0000 1.0000 0.9800 0.9982 1.0000 1.0000 0.8134 1.0000 1.0000 1.0000
     500.000 0.7957 0.9999 1.0000 0.9792 0.9983 1.0000 1.0000 0.8141 1.0000 1.0000 1.0000
     500.500 0.7956 0.9999 1.0000 0.9783 0.9982 1.0000 1.0000 0.8148 1.0000 1.0000 1.0000
     501.000 0.7954 0.9998 1.0000 0.9775 0.9981 1.0000 1.0000 0.8154 1.0000 1.0000 1.0000
     501.500 0.7951 0.9996 1.0000 0.9766 0.9980 1.0000 1.0000 0.8161 1.0000 1.0000 1.0000
     502.000 0.7947 0.9993 1.0000 0.9758 0.9978 1.0000 1.0000 0.8168 1.0000 1.0000 1.0000
     502.500 0.7943 0.9991 1.0000 0.9750 0.9975 1.0000 1.0000 0.8175 1.0000 1.0000 1.0000
     503.000 0.7937 0.9984 1.0000 0.9743 0.9974 1.0000 1.0000 0.8181 1.0000 1.0000 1.0000
     503.500 0.7929 0.9970 1.0000 0.9737 0.9975 1.0000 1.0000 0.8188 1.0000 1.0000 1.0000
     504.000 0.7924 0.9962 1.0000 0.9732 0.9975 1.0000 1.0000 0.8195 1.0000 1.0000 1.0000
     504.500 0.7931 0.9971 1.0000 0.9728 0.9971 1.0000 1.0000 0.8201 1.0000 1.0000 1.0000
     505.000 0.7944 0.9984 1.0000 0.9724 0.9968 1.0000 1.0000 0.8208 1.0000 1.0000 1.0000
     505.500 0.7951 0.9985 1.0000 0.9723 0.9970 1.0000 1.0000 0.8215 1.0000 1.0000 1.0000
     506.000 0.7957 0.9981 1.0000 0.9723 0.9974 1.0000 1.0000 0.8221 1.0000 1.0000 1.0000
     506.500 0.7966 0.9982 1.0000 0.9723 0.9976 1.0000 1.0000 0.8228 1.0000 1.0000 1.0000
     507.000 0.7973 0.9981 1.0000 0.9725 0.9977 1.0000 1.0000 0.8234 1.0000 1.0000 1.0000
     507.500 0.7981 0.9979 1.0000 0.9726 0.9979 1.0000 1.0000 0.8241 1.0000 1.0000 1.0000
     508.000 0.7991 0.9981 1.0000 0.9729 0.9979 1.0000 1.0000 0.8247 1.0000 1.0000 1.0000
     508.500 0.8002 0.9986 1.0000 0.9731 0.9977 1.0000 1.0000 0.8253 1.0000 1.0000 1.0000
     509.000 0.8011 0.9990 1.0000 0.9734 0.9975 1.0000 1.0000 0.8260 1.0000 1.0000 1.0000
     509.500 0.8019 0.9991 1.0000 0.9736 0.9973 1.0000 1.0000 0.8266 1.0000 1.0000 1.0000
     510.000 0.8028 0.9993 1.0000 0.9738 0.9972 1.0000 1.0000 0.8272 1.0000 1.0000 1.0000
     510.500 0.8037 0.9995 1.0000 0.9738 0.9973 1.0000 1.0000 0.8279 1.0000 1.0000 1.0000
     511.000 0.8045 0.9997 1.0000 0.9738 0.9974 1.0000 1.0000 0.8285 1.0000 1.0000 1.0000
     511.500 0.8051 0.9998 1.0000 0.9737 0.9975 1.0000 1.0000 0.8291 1.0000 1.0000 1.0000
     512.000 0.8057 0.9998 1.0000 0.9736 0.9976 1.0000 1.0000 0.8297 1.0000 1.0000 1.0000
     512.500 0.8061 0.9999 1.0000 0.9733 0.9976 1.0000 1.0000 0.8304 1.0000 1.0000 1.0000
     513.000 0.8066 0.9999 1.0000 0.9730 0.9977 1.0000 1.0000 0.8310 1.0000 1.0000 1.0000
     513.500 0.8072 1.0000 1.0000 0.9727 0.9979 1.0000 1.0000 0.8316 1.0000 1.0000 1.0000
     514.000 0.8077 1.0000 1.0000 0.9724 0.9981 1.0000 1.0000 0.8322 1.0000 1.0000 1.0000
     514.500 0.8081 1.0000 1.0000 0.9721 0.9982 1.0000 1.0000 0.8328 1.0000 1.0000 1.0000
     515.000 0.8084 1.0000 1.0000 0.9718 0.9982 1.0000 1.0000 0.8334 1.0000 1.0000 1.0000
     515.500 0.8088 1.0000 1.0000 0.9715 0.9983 1.0000 1.0000 0.8340 1.0000 1.0000 1.0000
     516.000 0.8092 1.0000 1.0000 0.9712 0.9984 1.0000 1.0000 0.8346 1.0000 1.0000 1.0000
     516.500 0.8096 1.0000 1.0000 0.9709 0.9985 1.0000 1.0000 0.8352 1.0000 1.0000 1.0000
     517.000 0.8100 1.0000 1.0000 0.9706 0.9985 1.0000 1.0000 0.8358 1.0000 1.0000 1.0000
     517.500 0.8104 1.0000 1.0000 0.9703 0.9985 1.0000 1.0000 0.8364 1.0000 1.0000 1.0000
     518.000 0.8105 1.0000 1.0000 0.9701 0.9983 1.0000 1.0000 0.8370 1.0000 1.0000 1.0000
     518.500 0.8107 1.0000 1.0000 0.9698 0.9981 1.0000 1.0000 0.8376 1.0000 1.0000 1.0000
     519.000 0.8109 1.0000 1.0000 0.9695 0.9980 1.0000 1.0000 0.8382 1.0000 1.0000 1.0000
     519.500 0.8113 1.0000 1.0000 0.9692 0.9980 1.0000 1.0000 0.8387 1.0000 1.0000 1.0000
     520.000 0.8115 1.0000 1.0000 0.9688 0.9980 1.0000 1.0000 0.8393 1.0000 1.0000 1.0000
     520.500 0.8118 1.0000 1.0000 0.9683 0.9981 1.0000 1.0000 0.8399 1.0000 1.0000 1.0000
     521.000 0.8120 1.0000 1.0000 0.9679 0.9983 1.0000 1.0000 0.8405 1.0000 1.0000 1.0000
     521.500 0.8122 1.0000 1.0000 0.9673 0.9984 1.0000 1.0000 0.8410 1.0000 1.0000 1.0000
     522.000 0.8124 1.0000 1.0000 0.9668 0.9984 1.0000 1.0000 0.8416 1.0000 1.0000 1.0000
     522.500 0.8124 1.0000 1.0000 0.9662 0.9984 1.0000 1.0000 0.8422 1.0000 1.0000 1.0000
     523.000 0.8123 1.0000 1.0000 0.9655 0.9984 1.0000 1.0000 0.8427 1.0000 1.0000 1.0000
     523.500 0.8122 0.9999 1.0000 0.9648 0.9984 1.0000 1.0000 0.8433 1.0000 1.0000 1.0000
     524.000 0.8120 0.9998 1.0000 0.9640 0.9984 1.0000 1.0000 0.8439 1.0000 1.0000 1.0000
     524.500 0.8117 0.9998 1.0000 0.9631 0.9983 1.0000 1.0000 0.8444 1.0000 1.0000 1.0000
     525.000 0.8113 0.9998 1.0000 0.9623 0.9980 1.0000 1.0000 0.8450 1.0000 1.0000 1.0000
     525.500 0.8110 0.9999 1.0000 0.9615 0.9977 1.0000 1.0000 0.8455 1.0000 1.0000 1.0000
     526.000 0.8109 0.9999 1.0000 0.9606 0.9977 1.0000 1.0000 0.8461 1.0000 1.0000 1.0000
     526.500 0.8107 0.9999 1.0000 0.9598 0.9978 1.0000 1.0000 0.8466 1.0000 1.0000 1.0000
     527.000 0.8106 0.9998 1.0000 0.9589 0.9980 1.0000 1.0000 0.8472 1.0000 1.0000 1.0000
     527.500 0.8105 0.9999 1.0000 0.9580 0.9981 1.0000 1.0000 0.8477 1.0000 1.0000 1.0000
     528.000 0.8104 0.9999 1.0000 0.9572 0.9981 1.0000 1.0000 0.8482 1.0000 1.0000 1.0000
     528.500 0.8103 0.9999 1.0000 0.9564 0.9982 1.0000 1.0000 0.8488 1.0000 1.0000 1.0000
     529.000 0.8102 0.9999 1.0000 0.9557 0.9983 1.0000 1.0000 0.8493 1.0000 1.0000 1.0000
     529.500 0.8102 0.9999 1.0000 0.9549 0.9984 1.0000 1.0000 0.8499 1.0000 1.0000 1.0000
     530.000 0.8102 0.9999 1.0000 0.9542 0.9985 1.0000 1.0000 0.8504 1.0000 1.0000 1.0000
     530.500 0.8102 0.9999 1.0000 0.9536 0.9985 1.0000 1.0000 0.8509 1.0000 1.0000 1.0000
     531.000 0.8102 0.9999 1.0000 0.9531 0.9985 1.0000 1.0000 0.8515 1.0000 1.0000 1.0000
     531.500 0.8103 1.0000 1.0000 0.9526 0.9985 1.0000 1.0000 0.8520 1.0000 1.0000 1.0000
     532.000 0.8105 1.0000 1.0000 0.9522 0.9985 1.0000 1.0000 0.8525 1.0000 1.0000 1.0000
     532.500 0.8107 1.0000 1.0000 0.9518 0.9984 1.0000 1.0000 0.8530 1.0000 1.0000 1.0000
     533.000 0.8110 1.0000 1.0000 0.9516 0.9985 1.0000 1.0000 0.8536 1.0000 1.0000 1.0000
     533.500 0.8115 1.0000 1.0000 0.9514 0.9986 1.0000 1.0000 0.8541 1.0000 1.0000 1.0000
     534.000 0.8119 1.0000 1.0000 0.9513 0.9987 1.0000 1.0000 0.8546 1.0000 1.0000 1.0000
     534.500 0.8125 1.0000 1.0000 0.9512 0.9989 1.0000 1.0000 0.8551 1.0000 1.0000 1.0000
     535.000 0.8131 1.0000 1.0000 0.9512 0.9990 1.0000 1.0000 0.8556 1.0000 1.0000 1.0000
     535.500 0.8137 1.0000 1.0000 0.9512 0.9991 1.0000 1.0000 0.8561 1.0000 1.0000 1.0000
     536.000 0.8142 1.0000 1.0000 0.9513 0.9991 1.0000 1.0000 0.8566 1.0000 1.0000 1.0000
     536.500 0.8147 1.0000 1.0000 0.9513 0.9991 1.0000 1.0000 0.8571 1.0000 1.0000 1.0000
     537.000 0.8152 1.0000 1.0000 0.9513 0.9992 1.0000 1.0000 0.8576 1.0000 1.0000 1.0000
     537.500 0.8155 1.0000 1.0000 0.9512 0.9991 1.0000 1.0000 0.8581 1.0000 1.0000 1.0000
     538.000 0.8157 0.9999 1.0000 0.9510 0.9990 1.0000 1.0000 0.8586 1.0000 1.0000 1.0000
     538.500 0.8158 0.9999 1.0000 0.9508 0.9988 1.0000 1.0000 0.8591 1.0000 1.0000 1.0000
     539.000 0.8160 0.9998 1.0000 0.9505 0.9988 1.0000 1.0000 0.8596 1.0000 1.0000 1.0000
     539.500 0.8161 0.9997 1.0000 0.9502 0.9989 1.0000 1.0000 0.8601 1.0000 1.0000 1.0000
     540.000 0.8162 0.9994 1.0000 0.9499 0.9990 1.0000 1.0000 0.8606 1.0000 1.0000 1.0000
     540.500 0.8160 0.9990 1.0000 0.9495 0.9991 1.0000 1.0000 0.8611 1.0000 1.0000 1.0000
     541.000 0.8156 0.9984 1.0000 0.9491 0.9991 1.0000 1.0000 0.8616 1.0000 1.0000 1.0000
     541.500 0.8154 0.9982 1.0000 0.9486 0.9989 1.0000 1.0000 0.8621 1.0000 1.0000 1.0000
     542.000 0.8154 0.9985 1.0000 0.9481 0.9987 1.0000 1.0000 0.8625 1.0000 1.0000 1.0000
     542.500 0.8157 0.9989 1.0000 0.9476 0.9986 1.0000 1.0000 0.8630 1.0000 1.0000 1.0000
     543.000 0.8158 0.9991 1.0000 0.9471 0.9985 1.0000 1.0000 0.8635 1.0000 1.0000 1.0000
     543.500 0.8157 0.9989 1.0000 0.9466 0.9986 1.0000 1.0000 0.8640 1.0000 1.0000 1.0000
     544.000 0.8158 0.9988 1.0000 0.9461 0.9987 1.0000 1.0000 0.8645 1.0000 1.0000 1.0000
     544.500 0.8160 0.9990 1.0000 0.9457 0.9987 1.0000 1.0000 0.8649 1.0000 1.0000 1.0000
     545.000 0.8160 0.9990 1.0000 0.9453 0.9986 1.0000 1.0000 0.8654 1.0000 1.0000 1.0000
     545.500 0.8160 0.9988 1.0000 0.9449 0.9987 1.0000 1.0000 0.8659 1.0000 1.0000 1.0000
     546.000 0.8161 0.9985 1.0000 0.9446 0.9988 1.0000 1.0000 0.8663 1.0000 1.0000 1.0000
     546.500 0.8164 0.9985 1.0000 0.9443 0.9989 1.0000 1.0000 0.8668 1.0000 1.0000 1.0000
     547.000 0.8169 0.9990 1.0000 0.9440 0.9989 1.0000 1.0000 0.8673 1.0000 1.0000 1.0000
     547.500 0.8173 0.9993 1.0000 0.9437 0.9987 1.0000 1.0000 0.8677 1.0000 1.0000 1.0000
     548.000 0.8175 0.9995 1.0000 0.9434 0.9987 1.0000 1.0000 0.8682 1.0000 1.0000 1.0000
     548.500 0.8178 0.9996 1.0000 0.9432 0.9987 1.0000 1.0000 0.8686 1.0000 1.0000 1.0000
     549.000 0.8181 0.9996 1.0000 0.9429 0.9987 1.0000 1.0000 0.8691 1.0000 1.0000 1.0000
     549.500 0.8185 0.9997 1.0000 0.9427 0.9988 1.0000 1.0000 0.8695 1.0000 1.0000 1.0000
     550.000 0.8188 0.9997 1.0000 0.9425 0.9989 1.0000 1.0000 0.8700 1.0000 1.0000 1.0000
     550.500 0.8192 0.9998 1.0000 0.9422 0.9990 1.0000 1.0000 0.8704 1.0000 1.0000 1.0000
     551.000 0.8194 0.9998 1.0000 0.9419 0.9991 1.0000 1.0000 0.8709 1.0000 1.0000 1.0000
     551.500 0.8197 0.9999 1.0000 0.9416 0.9991 1.0000 1.0000 0.8713 1.0000 1.0000 1.0000
     552.000 0.8198 0.9999 1.0000 0.9413 0.9991 1.0000 1.0000 0.8718 1.0000 1.0000 1.0000
     552.500 0.8198 0.9999 1.0000 0.9410 0.9990 1.0000 1.0000 0.8722 1.0000 1.0000 1.0000
     553.000 0.8199 1.0000 1.0000 0.9406 0.9990 1.0000 1.0000 0.8726 1.0000 1.0000 1.0000
     553.500 0.8201 1.0000 1.0000 0.9402 0.9990 1.0000 1.0000 0.8731 1.0000 1.0000 1.0000
     554.000 0.8202 1.0000 1.0000 0.9398 0.9991 1.0000 1.0000 0.8735 1.0000 1.0000 1.0000
     554.500 0.8203 1.0000 1.0000 0.9394 0.9992 1.0000 1.0000 0.8740 1.0000 1.0000 1.0000
     555.000 0.8204 1.0000 1.0000 0.9389 0.9993 1.0000 1.0000 0.8744 1.0000 1.0000 1.0000
     555.500 0.8204 1.0000 1.0000 0.9384 0.9994 1.0000 1.0000 0.8748 1.0000 1.0000 1.0000
     556.000 0.8204 1.0000 1.0000 0.9379 0.9994 1.0000 1.0000 0.8753 1.0000 1.0000 1.0000
     556.500 0.8202 1.0000 1.0000 0.9373 0.9994 1.0000 1.0000 0.8757 1.0000 1.0000 1.0000
     557.000 0.8201 1.0000 1.0000 0.9366 0.9994 1.0000 1.0000 0.8761 1.0000 1.0000 1.0000
     557.500 0.8199 1.0000 1.0000 0.9360 0.9994 1.0000 1.0000 0.8765 1.0000 1.0000 1.0000
     558.000 0.8196 1.0000 1.0000 0.9353 0.9994 1.0000 1.0000 0.8769 1.0000 1.0000 1.0000
     558.500 0.8194 1.0000 1.0000 0.9345 0.9994 1.0000 1.0000 0.8774 1.0000 1.0000 1.0000
     559.000 0.8192 1.0000 1.0000 0.9337 0.9995 1.0000 1.0000 0.8778 1.0000 1.0000 1.0000
     559.500 0.8189 1.0000 1.0000 0.9329 0.9995 1.0000 1.0000 0.8782 1.0000 1.0000 1.0000
     560.000 0.8185 1.0000 1.0000 0.9321 0.9995 1.0000 1.0000 0.8786 1.0000 1.0000 1.0000
     560.500 0.8182 1.0000 1.0000 0.9313 0.9994 1.0000 1.0000 0.8790 1.0000 1.0000 1.0000
     561.000 0.8178 1.0000 1.0000 0.9305 0.9994 1.0000 1.0000 0.8794 1.0000 1.0000 1.0000
     561.500 0.8174 1.0000 1.0000 0.9297 0.9993 1.0000 1.0000 0.8798 1.0000 1.0000 1.0000
     562.000 0.8171 1.0000 1.0000 0.9289 0.9993 1.0000 1.0000 0.8803 1.0000 1.0000 1.0000
     562.500 0.8167 1.0000 1.0000 0.9281 0.9992 1.0000 1.0000 0.8807 1.0000 1.0000 1.0000
     563.000 0.8164 1.0000 1.0000 0.9274 0.9991 1.0000 1.0000 0.8811 1.0000 1.0000 1.0000
     563.500 0.8160 1.0000 1.0000 0.9267 0.9990 1.0000 1.0000 0.8815 1.0000 1.0000 1.0000
     564.000 0.8158 1.0000 1.0000 0.9261 0.9989 1.0000 1.0000 0.8819 1.0000 1.0000 1.0000
     564.500 0.8156 1.0000 1.0000 0.9255 0.9989 1.0000 1.0000 0.8823 1.0000 1.0000 1.0000
     565.000 0.8155 1.0000 1.0000 0.9249 0.9990 1.0000 1.0000 0.8827 1.0000 1.0000 1.0000
     565.500 0.8155 0.9999 1.0000 0.9244 0.9991 1.0000 1.0000 0.8831 1.0000 1.0000 1.0000
     566.000 0.8156 0.9999 1.0000 0.9238 0.9993 1.0000 1.0000 0.8835 1.0000 1.0000 1.0000
     566.500 0.8155 0.9998 1.0000 0.9234 0.9994 1.0000 1.0000 0.8839 1.0000 1.0000 1.0000
     567.000 0.8154 0.9997 1.0000 0.9229 0.9994 1.0000 1.0000 0.8842 1.0000 1.0000 1.0000
     567.500 0.8150 0.9994 1.0000 0.9225 0.9993 1.0000 1.0000 0.8846 1.0000 1.0000 1.0000
     568.000 0.8143 0.9987 1.0000 0.9220 0.9992 1.0000 1.0000 0.8850 1.0000 1.0000 1.0000
     568.500 0.8131 0.9974 1.0000 0.9215 0.9992 1.0000 1.0000 0.8854 1.0000 1.0000 1.0000
     569.000 0.8124 0.9966 1.0000 0.9210 0.9993 1.0000 0.9999 0.8858 1.0000 1.0000 1.0000
     569.500 0.8124 0.9966 1.0000 0.9205 0.9993 1.0000 0.9999 0.8862 1.0000 1.0000 1.0000
     570.000 0.8125 0.9969 1.0000 0.9201 0.9992 1.0000 1.0000 0.8866 1.0000 1.0000 1.0000
     570.500 0.8133 0.9980 1.0000 0.9197 0.9991 1.0000 1.0000 0.8870 1.0000 1.0000 1.0000
     571.000 0.8140 0.9989 1.0000 0.9193 0.9990 1.0000 1.0000 0.8873 1.0000 1.0000 1.0000
     571.500 0.8138 0.9986 1.0000 0.9189 0.9991 1.0000 1.0000 0.8877 1.0000 1.0000 1.0000
     572.000 0.8132 0.9978 1.0000 0.9186 0.9991 1.0000 1.0000 0.8881 1.0000 1.0000 1.0000
     572.500 0.8133 0.9977 1.0000 0.9183 0.9992 1.0000 1.0000 0.8885 1.0000 1.0000 1.0000
     573.000 0.8138 0.9979 1.0000 0.9181 0.9993 1.0000 1.0000 0.8888 1.0000 1.0000 1.0000
     573.500 0.8143 0.9982 1.0000 0.9180 0.9994 1.0000 1.0000 0.8892 1.0000 1.0000 1.0000
     574.000 0.8147 0.9982 1.0000 0.9180 0.9995 1.0000 1.0000 0.8896 1.0000 1.0000 1.0000
     574.500 0.8149 0.9981 1.0000 0.9180 0.9995 1.0000 1.0000 0.8899 1.0000 1.0000 1.0000
     575.000 0.8156 0.9983 1.0000 0.9180 0.9996 1.0000 1.0000 0.8903 1.0000 1.0000 1.0000
     575.500 0.8164 0.9987 1.0000 0.9182 0.9996 1.0000 1.0000 0.8907 1.0000 1.0000 1.0000
     576.000 0.8171 0.9988 1.0000 0.9184 0.9997 1.0000 1.0000 0.8910 1.0000 1.0000 1.0000
     576.500 0.8178 0.9990 1.0000 0.9186 0.9997 1.0000 1.0000 0.8914 1.0000 1.0000 1.0000
     577.000 0.8184 0.9990 1.0000 0.9189 0.9997 1.0000 1.0000 0.8918 1.0000 1.0000 1.0000
     577.500 0.8190 0.9990 1.0000 0.9192 0.9997 1.0000 1.0000 0.8921 1.0000 1.0000 1.0000
     578.000 0.8199 0.9994 1.0000 0.9196 0.9996 1.0000 1.0000 0.8925 1.0000 1.0000 1.0000
     578.500 0.8206 0.9996 1.0000 0.9199 0.9995 1.0000 1.0000 0.8928 1.0000 1.0000 1.0000
     579.000 0.8213 0.9997 1.0000 0.9203 0.9995 1.0000 1.0000 0.8932 1.0000 1.0000 1.0000
     579.500 0.8220 0.9997 1.0000 0.9207 0.9995 1.0000 1.0000 0.8935 1.0000 1.0000 1.0000
     580.000 0.8227 0.9998 1.0000 0.9210 0.9995 1.0000 1.0000 0.8939 1.0000 1.0000 1.0000
     580.500 0.8234 0.9998 1.0000 0.9214 0.9996 1.0000 1.0000 0.8943 1.0000 1.0000 1.0000
     581.000 0.8242 0.9999 1.0000 0.9218 0.9996 1.0000 1.0000 0.8946 1.0000 1.0000 1.0000
     581.500 0.8249 0.9999 1.0000 0.9221 0.9997 1.0000 1.0000 0.8949 1.0000 1.0000 1.0000
     582.000 0.8255 0.9998 1.0000 0.9225 0.9997 1.0000 1.0000 0.8953 1.0000 1.0000 1.0000
     582.500 0.8260 0.9998 1.0000 0.9228 0.9997 1.0000 1.0000 0.8956 1.0000 1.0000 1.0000
     583.000 0.8266 0.9997 1.0000 0.9231 0.9997 1.0000 1.0000 0.8960 1.0000 1.0000 1.0000
     583.500 0.8271 0.9997 1.0000 0.9233 0.9997 1.0000 1.0000 0.8963 1.0000 1.0000 1.0000
     584.000 0.8275 0.9996 1.0000 0.9236 0.9996 1.0000 1.0000 0.8967 1.0000 1.0000 1.0000
     584.500 0.8279 0.9996 1.0000 0.9238 0.9996 1.0000 1.0000 0.8970 1.0000 1.0000 1.0000
     585.000 0.8282 0.9995 1.0000 0.9239 0.9995 1.0000 1.0000 0.8973 1.0000 1.0000 1.0000
     585.500 0.8285 0.9993 1.0000 0.9241 0.9995 1.0000 1.0000 0.8977 1.0000 1.0000 1.0000
     586.000 0.8286 0.9989 1.0000 0.9242 0.9995 1.0000 1.0000 0.8980 1.0000 1.0000 1.0000
     586.500 0.8285 0.9983 1.0000 0.9242 0.9995 1.0000 1.0000 0.8984 1.0000 1.0000 1.0000
     587.000 0.8282 0.9975 1.0000 0.9243 0.9995 1.0000 0.9999 0.8987 1.0000 1.0000 1.0000
     587.500 0.8271 0.9959 1.0000 0.9243 0.9996 1.0000 0.9999 0.8990 1.0000 1.0000 1.0000
     588.000 0.8246 0.9926 1.0000 0.9242 0.9996 1.0000 0.9998 0.8994 1.0000 1.0000 1.0000
     588.500 0.8202 0.9870 1.0000 0.9242 0.9996 1.0000 0.9998 0.8997 1.0000 1.0000 1.0000
     589.000 0.8163 0.9822 1.0000 0.9240 0.9996 1.0000 0.9998 0.9000 1.0000 1.0000 1.0000
     589.500 0.8160 0.9817 1.0000 0.9239 0.9995 1.0000 0.9997 0.9003 1.0000 1.0000 1.0000
     590.000 0.8158 0.9814 1.0000 0.9236 0.9995 1.0000 0.9997 0.9007 1.0000 1.0000 1.0000
     590.500 0.8181 0.9842 1.0000 0.9233 0.9995 1.0000 0.9997 0.9010 1.0000 1.0000 1.0000
     591.000 0.8204 0.9870 1.0000 0.9230 0.9994 1.0000 0.9997 0.9013 1.0000 1.0000 1.0000
     591.500 0.8191 0.9855 1.0000 0.9226 0.9994 1.0000 0.9997 0.9016 1.0000 1.0000 1.0000
     592.000 0.8162 0.9822 1.0000 0.9221 0.9993 1.0000 0.9998 0.9020 1.0000 1.0000 1.0000
     592.500 0.8172 0.9837 1.0000 0.9216 0.9993 1.0000 0.9998 0.9023 1.0000 1.0000 1.0000
     593.000 0.8214 0.9890 1.0000 0.9210 0.9994 1.0000 0.9998 0.9026 1.0000 1.0000 1.0000
     593.500 0.8228 0.9909 1.0000 0.9204 0.9995 1.0000 0.9998 0.9029 1.0000 1.0000 1.0000
     594.000 0.8190 0.9867 1.0000 0.9197 0.9996 1.0000 0.9998 0.9032 1.0000 1.0000 1.0000
     594.500 0.8140 0.9809 1.0000 0.9190 0.9997 1.0000 0.9998 0.9035 1.0000 1.0000 1.0000
     595.000 0.8161 0.9838 1.0000 0.9182 0.9997 1.0000 0.9998 0.9039 1.0000 1.0000 1.0000
     595.500 0.8208 0.9899 1.0000 0.9175 0.9998 1.0000 0.9998 0.9042 1.0000 1.0000 1.0000
     596.000 0.8226 0.9925 1.0000 0.9167 0.9998 1.0000 0.9998 0.9045 1.0000 1.0000 1.0000
     596.500 0.8226 0.9931 1.0000 0.9159 0.9997 1.0000 0.9998 0.9048 1.0000 1.0000 1.0000
     597.000 0.8212 0.9918 1.0000 0.9152 0.9997 1.0000 0.9998 0.9051 1.0000 1.0000 1.0000
     597.500 0.8214 0.9924 1.0000 0.9145 0.9997 1.0000 0.9999 0.9054 1.0000 1.0000 1.0000
     598.000 0.8222 0.9938 1.0000 0.9139 0.9997 1.0000 0.9999 0.9057 1.0000 1.0000 1.0000
     598.500 0.8233 0.9954 1.0000 0.9133 0.9997 1.0000 0.9999 0.9060 1.0000 1.0000 1.0000
     599.000 0.8234 0.9958 1.0000 0.9127 0.9997 1.0000 0.9999 0.9063 1.0000 1.0000 1.0000
     599.500 0.8237 0.9964 1.0000 0.9123 0.9996 1.0000 0.9999 0.9066 1.0000 1.0000 1.0000
     600.000 0.8244 0.9974 1.0000 0.9118 0.9996 1.0000 0.9999 0.9069 1.0000 1.0000 1.0000
     600.500 0.8251 0.9982 1.0000 0.9115 0.9996 1.0000 1.0000 0.9072 1.0000 1.0000 1.0000
     601.000 0.8257 0.9989 1.0000 0.9113 0.9996 1.0000 1.0000 0.9075 1.0000 1.0000 1.0000
     601.500 0.8260 0.9991 1.0000 0.9111 0.9996 1.0000 1.0000 0.9078 1.0000 1.0000 1.0000
     602.000 0.8265 0.9994 1.0000 0.9110 0.9997 1.0000 1.0000 0.9081 1.0000 1.0000 1.0000
     602.500 0.8270 0.9997 1.0000 0.9110 0.9997 1.0000 1.0000 0.9084 1.0000 1.0000 1.0000
     603.000 0.8275 0.9997 1.0000 0.9111 0.9998 1.0000 1.0000 0.9087 1.0000 1.0000 1.0000
     603.500 0.8281 0.9998 1.0000 0.9113 0.9998 1.0000 1.0000 0.9090 1.0000 1.0000 1.0000
     604.000 0.8287 0.9999 1.0000 0.9115 0.9999 1.0000 1.0000 0.9093 1.0000 1.0000 1.0000
     604.500 0.8292 0.9999 1.0000 0.9119 0.9999 1.0000 1.0000 0.9096 1.0000 1.0000 1.0000
     605.000 0.8299 1.0000 1.0000 0.9122 0.9999 1.0000 1.0000 0.9099 1.0000 1.0000 1.0000
     605.500 0.8305 1.0000 1.0000 0.9127 0.9998 1.0000 1.0000 0.9102 1.0000 1.0000 1.0000
     606.000 0.8312 1.0000 1.0000 0.9132 0.9998 1.0000 1.0000 0.9105 1.0000 1.0000 1.0000
     606.500 0.8320 1.0000 1.0000 0.9138 0.9998 1.0000 1.0000 0.9107 1.0000 1.0000 1.0000
     607.000 0.8328 1.0000 1.0000 0.9144 0.9998 1.0000 1.0000 0.9110 1.0000 1.0000 1.0000
     607.500 0.8337 1.0000 1.0000 0.9150 0.9998 1.0000 1.0000 0.9113 1.0000 1.0000 1.0000
     608.000 0.8345 1.0000 1.0000 0.9156 0.9998 1.0000 1.0000 0.9116 1.0000 1.0000 1.0000
     608.500 0.8354 1.0000 1.0000 0.9163 0.9998 1.0000 1.0000 0.9118 1.0000 1.0000 1.0000
     609.000 0.8363 1.0000 1.0000 0.9170 0.9998 1.0000 1.0000 0.9121 1.0000 1.0000 1.0000
     609.500 0.8373 1.0000 1.0000 0.9178 0.9998 1.0000 1.0000 0.9124 1.0000 1.0000 1.0000
     610.000 0.8382 1.0000 1.0000 0.9185 0.9998 1.0000 1.0000 0.9127 1.0000 1.0000 1.0000
     610.500 0.8391 1.0000 1.0000 0.9193 0.9998 1.0000 1.0000 0.9130 1.0000 1.0000 1.0000
     611.000 0.8400 1.0000 1.0000 0.9200 0.9997 1.0000 1.0000 0.9133 1.0000 1.0000 1.0000
     611.500 0.8408 1.0000 1.0000 0.9207 0.9996 1.0000 1.0000 0.9135 1.0000 1.0000 1.0000
     612.000 0.8416 1.0000 1.0000 0.9214 0.9996 1.0000 1.0000 0.9138 1.0000 1.0000 1.0000
     612.500 0.8425 1.0000 1.0000 0.9221 0.9995 1.0000 1.0000 0.9141 1.0000 1.0000 1.0000
     613.000 0.8434 1.0000 1.0000 0.9228 0.9996 1.0000 1.0000 0.9143 1.0000 1.0000 1.0000
     613.500 0.8443 1.0000 1.0000 0.9234 0.9997 1.0000 1.0000 0.9146 1.0000 1.0000 1.0000
     614.000 0.8452 1.0000 1.0000 0.9241 0.9997 1.0000 1.0000 0.9149 1.0000 1.0000 1.0000
     614.500 0.8460 1.0000 1.0000 0.9247 0.9997 1.0000 1.0000 0.9151 1.0000 1.0000 1.0000
     615.000 0.8468 1.0000 1.0000 0.9253 0.9997 1.0000 1.0000 0.9154 1.0000 1.0000 1.0000
     615.500 0.8476 1.0000 1.0000 0.9259 0.9997 1.0000 1.0000 0.9157 1.0000 1.0000 1.0000
     616.000 0.8483 1.0000 1.0000 0.9265 0.9997 1.0000 1.0000 0.9159 1.0000 1.0000 1.0000
     616.500 0.8491 1.0000 1.0000 0.9270 0.9996 1.0000 1.0000 0.9162 1.0000 1.0000 1.0000
     617.000 0.8498 1.0000 1.0000 0.9276 0.9996 1.0000 1.0000 0.9165 1.0000 1.0000 1.0000
     617.500 0.8506 1.0000 1.0000 0.9281 0.9997 1.0000 1.0000 0.9167 1.0000 1.0000 1.0000
     618.000 0.8513 1.0000 1.0000 0.9286 0.9997 1.0000 1.0000 0.9170 1.0000 1.0000 1.0000
     618.500 0.8521 1.0000 1.0000 0.9291 0.9998 1.0000 1.0000 0.9172 1.0000 1.0000 1.0000
     619.000 0.8527 1.0000 1.0000 0.9296 0.9998 1.0000 1.0000 0.9175 1.0000 1.0000 1.0000
     619.500 0.8534 1.0000 1.0000 0.9300 0.9998 1.0000 1.0000 0.9178 1.0000 1.0000 1.0000
     620.000 0.8540 1.0000 1.0000 0.9304 0.9997 1.0000 1.0000 0.9180 1.0000 1.0000 1.0000
     620.500 0.8546 1.0000 1.0000 0.9309 0.9997 1.0000 1.0000 0.9183 1.0000 1.0000 1.0000
     621.000 0.8552 1.0000 1.0000 0.9313 0.9997 1.0000 1.0000 0.9185 1.0000 1.0000 1.0000
     621.500 0.8559 1.0000 1.0000 0.9317 0.9998 1.0000 1.0000 0.9188 1.0000 1.0000 1.0000
     622.000 0.8565 1.0000 1.0000 0.9321 0.9998 1.0000 1.0000 0.9191 1.0000 1.0000 1.0000
     622.500 0.8571 1.0000 1.0000 0.9325 0.9998 1.0000 1.0000 0.9193 1.0000 1.0000 1.0000
     623.000 0.8577 1.0000 1.0000 0.9329 0.9998 1.0000 1.0000 0.9196 1.0000 1.0000 1.0000
     623.500 0.8583 1.0000 1.0000 0.9333 0.9998 1.0000 1.0000 0.9198 1.0000 1.0000 1.0000
     624.000 0.8589 1.0000 1.0000 0.9336 0.9998 1.0000 1.0000 0.9201 1.0000 1.0000 1.0000
     624.500 0.8594 1.0000 1.0000 0.9340 0.9998 1.0000 1.0000 0.9203 1.0000 1.0000 1.0000
     625.000 0.8600 0.9999 1.0000 0.9344 0.9998 1.0000 1.0000 0.9206 1.0000 1.0000 1.0000
     625.500 0.8605 0.9998 1.0000 0.9349 0.9998 1.0000 1.0000 0.9208 1.0000 1.0000 1.0000
     626.000 0.8609 0.9995 1.0000 0.9353 0.9998 1.0000 1.0000 0.9211 1.0000 1.0000 1.0000
     626.500 0.8610 0.9990 0.9999 0.9357 0.9998 1.0000 1.0000 0.9213 1.0000 1.0000 1.0000
     627.000 0.8594 0.9985 0.9978 0.9361 0.9999 1.0000 1.0000 0.9215 1.0000 1.0000 1.0000
     627.500 0.8465 0.9977 0.9829 0.9366 0.9999 1.0000 1.0000 0.9218 1.0000 1.0000 1.0000
     628.000 0.8267 0.9970 0.9598 0.9370 0.9999 1.0000 1.0000 0.9220 1.0000 1.0000 1.0000
     628.500 0.8334 0.9972 0.9666 0.9375 0.9999 1.0000 1.0000 0.9223 1.0000 1.0000 1.0000
     629.000 0.8458 0.9976 0.9799 0.9380 0.9999 1.0000 1.0000 0.9225 1.0000 1.0000 1.0000
     629.500 0.8463 0.9977 0.9796 0.9384 0.9999 1.0000 1.0000 0.9228 1.0000 1.0000 1.0000
     630.000 0.8484 0.9983 0.9807 0.9389 0.9999 1.0000 1.0000 0.9230 1.0000 1.0000 1.0000
     630.500 0.8536 0.9993 0.9851 0.9393 0.9999 1.0000 1.0000 0.9232 1.0000 1.0000 1.0000
     631.000 0.8577 0.9993 0.9891 0.9398 0.9999 1.0000 1.0000 0.9235 1.0000 1.0000 1.0000
     631.500 0.8609 0.9984 0.9930 0.9402 0.9999 1.0000 1.0000 0.9237 1.0000 1.0000 1.0000
     632.000 0.8634 0.9975 0.9960 0.9407 0.9999 1.0000 1.0000 0.9239 1.0000 1.0000 1.0000
     632.500 0.8659 0.9978 0.9978 0.9411 0.9999 1.0000 1.0000 0.9242 1.0000 1.0000 1.0000
     633.000 0.8680 0.9985 0.9988 0.9416 0.9999 1.0000 1.0000 0.9244 1.0000 1.0000 1.0000
     633.500 0.8695 0.9988 0.9994 0.9421 0.9999 1.0000 1.0000 0.9247 1.0000 1.0000 1.0000
     634.000 0.8705 0.9990 0.9998 0.9426 0.9999 1.0000 1.0000 0.9249 1.0000 1.0000 1.0000
     634.500 0.8712 0.9988 0.9999 0.9431 0.9999 1.0000 1.0000 0.9251 1.0000 1.0000 1.0000
     635.000 0.8718 0.9987 1.0000 0.9436 0.9999 1.0000 1.0000 0.9253 1.0000 1.0000 1.0000
     635.500 0.8727 0.9988 1.0000 0.9441 0.9999 1.0000 1.0000 0.9256 1.0000 1.0000 1.0000
     636.000 0.8735 0.9990 1.0000 0.9446 0.9999 1.0000 1.0000 0.9258 1.0000 1.0000 1.0000
     636.500 0.8742 0.9991 1.0000 0.9451 0.9999 1.0000 1.0000 0.9260 1.0000 1.0000 1.0000
     637.000 0.8749 0.9990 1.0000 0.9456 0.9999 1.0000 1.0000 0.9262 1.0000 1.0000 1.0000
     637.500 0.8757 0.9991 1.0000 0.9462 0.9999 1.0000 1.0000 0.9265 1.0000 1.0000 1.0000
     638.000 0.8766 0.9994 1.0000 0.9467 0.9999 1.0000 1.0000 0.9267 1.0000 1.0000 1.0000
     638.500 0.8774 0.9994 1.0000 0.9472 0.9999 1.0000 1.0000 0.9269 1.0000 1.0000 1.0000
     639.000 0.8780 0.9994 1.0000 0.9477 0.9999 1.0000 1.0000 0.9271 1.0000 1.0000 1.0000
     639.500 0.8787 0.9994 1.0000 0.9482 0.9999 1.0000 1.0000 0.9274 1.0000 1.0000 1.0000
     640.000 0.8794 0.9994 1.0000 0.9488 0.9999 1.0000 1.0000 0.9276 1.0000 1.0000 1.0000
     640.500 0.8800 0.9993 1.0000 0.9493 0.9999 1.0000 1.0000 0.9278 1.0000 1.0000 1.0000
     641.000 0.8807 0.9993 1.0000 0.9498 0.9999 1.0000 1.0000 0.9280 1.0000 1.0000 1.0000
     641.500 0.8813 0.9993 1.0000 0.9502 0.9999 1.0000 1.0000 0.9282 1.0000 1.0000 1.0000
     642.000 0.8820 0.9994 1.0000 0.9507 0.9998 1.0000 1.0000 0.9285 1.0000 1.0000 1.0000
     642.500 0.8825 0.9993 1.0000 0.9511 0.9998 1.0000 1.0000 0.9287 1.0000 1.0000 1.0000
     643.000 0.8830 0.9992 1.0000 0.9516 0.9998 1.0000 1.0000 0.9289 1.0000 1.0000 1.0000
     643.500 0.8834 0.9990 1.0000 0.9520 0.9998 1.0000 1.0000 0.9291 1.0000 1.0000 1.0000
     644.000 0.8840 0.9988 1.0000 0.9525 0.9999 1.0000 1.0000 0.9293 1.0000 1.0000 1.0000
     644.500 0.8843 0.9986 1.0000 0.9529 0.9999 1.0000 1.0000 0.9296 1.0000 1.0000 1.0000
     645.000 0.8845 0.9982 1.0000 0.9533 0.9999 1.0000 1.0000 0.9298 1.0000 1.0000 1.0000
     645.500 0.8842 0.9972 1.0000 0.9537 0.9998 1.0000 0.9999 0.9300 1.0000 1.0000 1.0000
     646.000 0.8832 0.9954 1.0000 0.9541 0.9998 1.0000 0.9999 0.9302 1.0000 1.0000 1.0000
     646.500 0.8816 0.9931 1.0000 0.9545 0.9998 1.0000 0.9999 0.9304 1.0000 1.0000 1.0000
     647.000 0.8792 0.9899 1.0000 0.9549 0.9998 1.0000 0.9998 0.9306 1.0000 1.0000 1.0000
     647.500 0.8764 0.9860 1.0000 0.9552 0.9998 1.0000 0.9998 0.9308 1.0000 1.0000 1.0000
     648.000 0.8761 0.9851 1.0000 0.9556 0.9998 1.0000 0.9998 0.9310 1.0000 1.0000 1.0000
     648.500 0.8780 0.9866 1.0000 0.9560 0.9999 1.0000 0.9998 0.9312 1.0000 1.0000 1.0000
     649.000 0.8797 0.9880 1.0000 0.9563 0.9999 1.0000 0.9998 0.9314 1.0000 1.0000 1.0000
     649.500 0.8807 0.9884 1.0000 0.9567 0.9999 1.0000 0.9998 0.9317 1.0000 1.0000 1.0000
     650.000 0.8844 0.9920 1.0000 0.9570 0.9999 1.0000 0.9998 0.9318 1.0000 1.0000 1.0000
     650.500 0.8879 0.9953 1.0000 0.9573 0.9999 1.0000 0.9998 0.9321 1.0000 1.0000 1.0000
     651.000 0.8871 0.9939 1.0000 0.9577 0.9999 1.0000 0.9998 0.9323 1.0000 1.0000 1.0000
     651.500 0.8818 0.9873 1.0000 0.9580 0.9999 1.0000 0.9999 0.9325 1.0000 1.0000 1.0000
     652.000 0.8803 0.9850 1.0000 0.9584 0.9999 1.0000 0.9999 0.9327 1.0000 1.0000 1.0000
     652.500 0.8863 0.9913 1.0000 0.9587 0.9999 1.0000 0.9999 0.9329 1.0000 1.0000 1.0000
     653.000 0.8900 0.9948 1.0000 0.9591 0.9999 1.0000 0.9999 0.9331 1.0000 1.0000 1.0000
     653.500 0.8904 0.9945 1.0000 0.9595 0.9999 1.0000 0.9999 0.9333 1.0000 1.0000 1.0000
     654.000 0.8912 0.9949 1.0000 0.9598 0.9999 1.0000 0.9999 0.9335 1.0000 1.0000 1.0000
     654.500 0.8899 0.9929 1.0000 0.9602 0.9999 1.0000 0.9999 0.9337 1.0000 1.0000 1.0000
     655.000 0.8890 0.9913 1.0000 0.9605 0.9999 1.0000 0.9999 0.9339 1.0000 1.0000 1.0000
     655.500 0.8898 0.9917 1.0000 0.9609 0.9999 1.0000 0.9999 0.9341 1.0000 1.0000 1.0000
     656.000 0.8913 0.9927 1.0000 0.9612 0.9999 1.0000 0.9999 0.9343 1.0000 1.0000 1.0000
     656.500 0.8927 0.9937 1.0000 0.9616 0.9999 1.0000 0.9999 0.9345 1.0000 1.0000 1.0000
     657.000 0.8938 0.9943 1.0000 0.9619 0.9999 1.0000 0.9999 0.9347 1.0000 1.0000 1.0000
     657.500 0.8942 0.9942 1.0000 0.9623 0.9999 1.0000 0.9999 0.9349 1.0000 1.0000 1.0000
     658.000 0.8960 0.9955 1.0000 0.9626 0.9999 1.0000 0.9999 0.9350 1.0000 1.0000 1.0000
     658.500 0.8973 0.9964 1.0000 0.9629 0.9999 1.0000 0.9999 0.9352 1.0000 1.0000 1.0000
     659.000 0.8985 0.9973 1.0000 0.9633 0.9999 1.0000 1.0000 0.9354 1.0000 1.0000 1.0000
     659.500 0.8998 0.9982 1.0000 0.9636 0.9999 1.0000 1.0000 0.9356 1.0000 1.0000 1.0000
     660.000 0.9003 0.9982 1.0000 0.9639 0.9999 1.0000 1.0000 0.9358 1.0000 1.0000 1.0000
     660.500 0.9011 0.9985 1.0000 0.9642 0.9999 1.0000 1.0000 0.9360 1.0000 1.0000 1.0000
     661.000 0.9021 0.9991 1.0000 0.9645 1.0000 1.0000 1.0000 0.9362 1.0000 1.0000 1.0000
     661.500 0.9028 0.9993 1.0000 0.9648 1.0000 1.0000 1.0000 0.9364 1.0000 1.0000 1.0000
     662.000 0.9035 0.9996 1.0000 0.9652 1.0000 1.0000 1.0000 0.9366 1.0000 1.0000 1.0000
     662.500 0.9040 0.9996 1.0000 0.9655 1.0000 1.0000 1.0000 0.9368 1.0000 1.0000 1.0000
     663.000 0.9044 0.9995 1.0000 0.9658 1.0000 1.0000 1.0000 0.9369 1.0000 1.0000 1.0000
     663.500 0.9049 0.9995 1.0000 0.9661 1.0000 1.0000 1.0000 0.9371 1.0000 1.0000 1.0000
     664.000 0.9055 0.9996 1.0000 0.9665 1.0000 1.0000 1.0000 0.9373 1.0000 1.0000 1.0000
     664.500 0.9059 0.9995 1.0000 0.9668 1.0000 1.0000 1.0000 0.9375 1.0000 1.0000 1.0000
     665.000 0.9065 0.9996 1.0000 0.9672 1.0000 1.0000 1.0000 0.9377 1.0000 1.0000 1.0000
     665.500 0.9071 0.9997 1.0000 0.9675 0.9999 1.0000 1.0000 0.9379 1.0000 1.0000 1.0000
     666.000 0.9076 0.9998 1.0000 0.9679 0.9999 1.0000 1.0000 0.9381 1.0000 1.0000 1.0000
     666.500 0.9081 0.9997 1.0000 0.9682 0.9999 1.0000 1.0000 0.9382 1.0000 1.0000 1.0000
     667.000 0.9087 0.9998 1.0000 0.9686 0.9999 1.0000 1.0000 0.9384 1.0000 1.0000 1.0000
     667.500 0.9093 0.9999 1.0000 0.9690 0.9999 1.0000 1.0000 0.9386 1.0000 1.0000 1.0000
     668.000 0.9099 1.0000 1.0000 0.9693 0.9999 1.0000 1.0000 0.9388 1.0000 1.0000 1.0000
     668.500 0.9104 1.0000 1.0000 0.9697 0.9999 1.0000 1.0000 0.9390 1.0000 1.0000 1.0000
     669.000 0.9109 1.0000 1.0000 0.9700 0.9999 1.0000 1.0000 0.9391 1.0000 1.0000 1.0000
     669.500 0.9114 1.0000 1.0000 0.9704 0.9999 1.0000 1.0000 0.9393 1.0000 1.0000 1.0000
     670.000 0.9119 1.0000 1.0000 0.9707 0.9999 1.0000 1.0000 0.9395 1.0000 1.0000 1.0000
     670.500 0.9124 1.0000 1.0000 0.9711 0.9999 1.0000 1.0000 0.9397 1.0000 1.0000 1.0000
     671.000 0.9129 1.0000 1.0000 0.9714 0.9999 1.0000 1.0000 0.9398 1.0000 1.0000 1.0000
     671.500 0.9134 1.0000 1.0000 0.9718 0.9999 1.0000 1.0000 0.9400 1.0000 1.0000 1.0000
     672.000 0.9139 1.0000 1.0000 0.9721 0.9999 1.0000 1.0000 0.9402 1.0000 1.0000 1.0000
     672.500 0.9143 1.0000 1.0000 0.9724 0.9999 1.0000 1.0000 0.9404 1.0000 1.0000 1.0000
     673.000 0.9148 1.0000 1.0000 0.9728 0.9999 1.0000 1.0000 0.9405 1.0000 1.0000 1.0000
     673.500 0.9153 1.0000 1.0000 0.9731 0.9999 1.0000 1.0000 0.9407 1.0000 1.0000 1.0000
     674.000 0.9157 1.0000 1.0000 0.9734 0.9999 1.0000 1.0000 0.9409 1.0000 1.0000 1.0000
     674.500 0.9162 1.0000 1.0000 0.9736 0.9999 1.0000 1.0000 0.9411 1.0000 1.0000 1.0000
     675.000 0.9166 1.0000 1.0000 0.9739 0.9999 1.0000 1.0000 0.9412 1.0000 1.0000 1.0000
     675.500 0.9170 1.0000 1.0000 0.9742 0.9999 1.0000 1.0000 0.9414 1.0000 1.0000 1.0000
     676.000 0.9175 1.0000 1.0000 0.9745 0.9999 1.0000 1.0000 0.9416 1.0000 1.0000 1.0000
     676.500 0.9179 1.0000 1.0000 0.9748 0.9999 1.0000 1.0000 0.9417 1.0000 1.0000 1.0000
     677.000 0.9184 1.0000 1.0000 0.9751 0.9999 1.0000 1.0000 0.9419 1.0000 1.0000 1.0000
     677.500 0.9188 1.0000 1.0000 0.9753 0.9999 1.0000 1.0000 0.9421 1.0000 1.0000 1.0000
     678.000 0.9192 1.0000 1.0000 0.9756 0.9999 1.0000 1.0000 0.9422 1.0000 1.0000 1.0000
     678.500 0.9196 1.0000 1.0000 0.9758 0.9999 1.0000 1.0000 0.9424 1.0000 1.0000 1.0000
     679.000 0.9200 1.0000 1.0000 0.9760 0.9999 1.0000 1.0000 0.9426 1.0000 1.0000 1.0000
     679.500 0.9203 1.0000 1.0000 0.9763 0.9999 1.0000 1.0000 0.9428 1.0000 1.0000 1.0000
     680.000 0.9207 1.0000 1.0000 0.9765 0.9999 1.0000 1.0000 0.9429 1.0000 1.0000 1.0000
     680.500 0.9210 0.9999 1.0000 0.9767 0.9999 1.0000 1.0000 0.9431 1.0000 1.0000 1.0000
     681.000 0.9213 0.9999 1.0000 0.9769 0.9999 1.0000 1.0000 0.9432 1.0000 1.0000 1.0000
     681.500 0.9216 0.9998 1.0000 0.9771 1.0000 1.0000 1.0000 0.9434 1.0000 1.0000 1.0000
     682.000 0.9219 0.9998 1.0000 0.9773 1.0000 1.0000 1.0000 0.9436 1.0000 1.0000 1.0000
     682.500 0.9222 0.9997 1.0000 0.9774 1.0000 1.0000 1.0000 0.9437 1.0000 1.0000 1.0000
     683.000 0.9225 0.9997 1.0000 0.9776 1.0000 1.0000 1.0000 0.9439 1.0000 1.0000 1.0000
     683.500 0.9228 0.9998 1.0000 0.9778 1.0000 1.0000 1.0000 0.9441 1.0000 1.0000 1.0000
     684.000 0.9230 0.9996 1.0000 0.9780 1.0000 1.0000 1.0000 0.9442 1.0000 1.0000 1.0000
     684.500 0.9232 0.9995 1.0000 0.9782 1.0000 1.0000 1.0000 0.9444 1.0000 1.0000 1.0000
     685.000 0.9237 0.9996 1.0000 0.9783 1.0000 1.0000 1.0000 0.9445 1.0000 1.0000 1.0000
     685.500 0.9238 0.9996 0.9997 0.9786 0.9999 1.0000 1.0000 0.9447 1.0000 1.0000 1.0000
     686.000 0.9176 0.9995 0.9927 0.9788 0.9999 1.0000 1.0000 0.9449 1.0000 1.0000 1.0000
     686.500 0.8624 0.9993 0.9328 0.9791 0.9999 1.0000 1.0000 0.9450 1.0000 1.0000 1.0000
     687.000 0.7255 0.9991 0.7845 0.9793 1.0000 1.0000 1.0000 0.9452 1.0000 1.0000 1.0000
     687.500 0.6600 0.9994 0.7133 0.9795 1.0000 1.0000 1.0000 0.9453 1.0000 1.0000 1.0000
     688.000 0.7323 0.9996 0.7908 0.9798 1.0000 1.0000 1.0000 0.9455 1.0000 1.0000 1.0000
     688.500 0.7928 0.9996 0.8557 0.9801 1.0000 1.0000 1.0000 0.9456 1.0000 1.0000 1.0000
     689.000 0.7765 0.9995 0.8379 0.9804 1.0000 1.0000 1.0000 0.9458 1.0000 1.0000 1.0000
     689.500 0.7764 0.9994 0.8375 0.9807 1.0000 1.0000 1.0000 0.9460 1.0000 1.0000 1.0000
     690.000 0.7996 0.9991 0.8623 0.9809 1.0000 1.0000 1.0000 0.9461 1.0000 1.0000 1.0000
     690.500 0.8185 0.9987 0.8828 0.9812 1.0000 1.0000 1.0000 0.9463 1.0000 1.0000 1.0000
     691.000 0.8401 0.9981 0.9062 0.9815 1.0000 1.0000 0.9999 0.9464 1.0000 1.0000 1.0000
     691.500 0.8566 0.9969 0.9248 0.9818 1.0000 1.0000 0.9999 0.9466 1.0000 1.0000 1.0000
     692.000 0.8697 0.9933 0.9419 0.9820 1.0000 1.0000 0.9998 0.9467 1.0000 1.0000 1.0000
     692.500 0.8821 0.9872 0.9608 0.9822 1.0000 1.0000 0.9998 0.9469 1.0000 1.0000 1.0000
     693.000 0.8913 0.9815 0.9763 0.9825 1.0000 1.0000 0.9997 0.9470 1.0000 1.0000 1.0000
     693.500 0.8941 0.9761 0.9846 0.9827 1.0000 1.0000 0.9996 0.9472 1.0000 1.0000 1.0000
     694.000 0.8934 0.9695 0.9902 0.9829 1.0000 1.0000 0.9996 0.9473 1.0000 1.0000 1.0000
     694.500 0.8954 0.9663 0.9952 0.9832 1.0000 1.0000 0.9995 0.9475 1.0000 1.0000 1.0000
     695.000 0.9015 0.9701 0.9977 0.9834 1.0000 1.0000 0.9995 0.9476 1.0000 1.0000 1.0000
     695.500 0.9050 0.9724 0.9988 0.9837 1.0000 1.0000 0.9995 0.9478 1.0000 1.0000 1.0000
     696.000 0.9049 0.9712 0.9994 0.9839 1.0000 1.0000 0.9996 0.9479 1.0000 1.0000 1.0000
     696.500 0.9140 0.9802 0.9998 0.9841 1.0000 1.0000 0.9996 0.9481 1.0000 1.0000 1.0000
     697.000 0.9246 0.9910 0.9999 0.9844 1.0000 1.0000 0.9997 0.9482 1.0000 1.0000 1.0000
     697.500 0.9267 0.9929 1.0000 0.9846 1.0000 1.0000 0.9997 0.9484 1.0000 1.0000 1.0000
     698.000 0.9254 0.9911 1.0000 0.9848 1.0000 1.0000 0.9997 0.9485 1.0000 1.0000 1.0000
     698.500 0.9200 0.9849 1.0000 0.9850 1.0000 1.0000 0.9997 0.9486 1.0000 1.0000 1.0000
     699.000 0.9123 0.9764 1.0000 0.9852 1.0000 1.0000 0.9997 0.9488 1.0000 1.0000 1.0000
     699.500 0.9119 0.9756 1.0000 0.9854 1.0000 1.0000 0.9996 0.9489 1.0000 1.0000 1.0000
     700.000 0.9155 0.9791 1.0000 0.9856 1.0000 1.0000 0.9996 0.9491 1.0000 1.0000 1.0000
     700.500 0.9157 0.9791 1.0000 0.9857 1.0000 1.0000 0.9996 0.9492 1.0000 1.0000 1.0000
     701.000 0.9151 0.9781 1.0000 0.9859 1.0000 1.0000 0.9996 0.9494 1.0000 1.0000 1.0000
     701.500 0.9160 0.9788 1.0000 0.9860 1.0000 1.0000 0.9996 0.9495 1.0000 1.0000 1.0000
     702.000 0.9169 0.9794 1.0000 0.9862 1.0000 1.0000 0.9996 0.9496 1.0000 1.0000 1.0000
     702.500 0.9171 0.9794 1.0000 0.9863 1.0000 1.0000 0.9997 0.9498 1.0000 1.0000 1.0000
     703.000 0.9198 0.9819 1.0000 0.9864 1.0000 1.0000 0.9997 0.9499 1.0000 1.0000 1.0000
     703.500 0.9264 0.9887 1.0000 0.9866 1.0000 1.0000 0.9997 0.9501 1.0000 1.0000 1.0000
     704.000 0.9258 0.9877 1.0000 0.9867 1.0000 1.0000 0.9997 0.9502 1.0000 1.0000 1.0000
     704.500 0.9261 0.9878 1.0000 0.9868 0.9999 1.0000 0.9998 0.9503 1.0000 1.0000 1.0000
     705.000 0.9265 0.9880 1.0000 0.9869 0.9999 1.0000 0.9998 0.9505 1.0000 1.0000 1.0000
     705.500 0.9257 0.9868 1.0000 0.9870 0.9999 1.0000 0.9998 0.9506 1.0000 1.0000 1.0000
     706.000 0.9274 0.9884 1.0000 0.9871 0.9999 1.0000 0.9998 0.9508 1.0000 1.0000 1.0000
     706.500 0.9291 0.9900 1.0000 0.9872 0.9999 1.0000 0.9998 0.9509 1.0000 1.0000 1.0000
     707.000 0.9310 0.9918 1.0000 0.9873 0.9999 1.0000 0.9998 0.9510 1.0000 1.0000 1.0000
     707.500 0.9316 0.9922 1.0000 0.9874 0.9999 1.0000 0.9998 0.9512 1.0000 1.0000 1.0000
     708.000 0.9317 0.9919 1.0000 0.9875 0.9999 1.0000 0.9999 0.9513 1.0000 1.0000 1.0000
     708.500 0.9334 0.9935 1.0000 0.9876 1.0000 1.0000 0.9999 0.9514 1.0000 1.0000 1.0000
     709.000 0.9342 0.9942 1.0000 0.9877 1.0000 1.0000 0.9999 0.9516 1.0000 1.0000 1.0000
     709.500 0.9346 0.9943 1.0000 0.9877 1.0000 1.0000 0.9999 0.9517 1.0000 1.0000 1.0000
     710.000 0.9341 0.9936 1.0000 0.9878 1.0000 1.0000 0.9999 0.9518 1.0000 1.0000 1.0000
     710.500 0.9340 0.9933 1.0000 0.9879 1.0000 1.0000 0.9999 0.9520 1.0000 1.0000 1.0000
     711.000 0.9351 0.9943 1.0000 0.9879 1.0000 1.0000 0.9999 0.9521 1.0000 1.0000 1.0000
     711.500 0.9363 0.9954 1.0000 0.9880 1.0000 1.0000 0.9999 0.9522 1.0000 1.0000 1.0000
     712.000 0.9368 0.9957 1.0000 0.9881 1.0000 1.0000 0.9999 0.9524 1.0000 1.0000 1.0000
     712.500 0.9367 0.9953 1.0000 0.9881 1.0000 1.0000 0.9999 0.9525 1.0000 1.0000 1.0000
     713.000 0.9358 0.9942 1.0000 0.9881 1.0000 1.0000 0.9999 0.9526 1.0000 1.0000 1.0000
     713.500 0.9359 0.9942 1.0000 0.9882 1.0000 1.0000 0.9998 0.9528 1.0000 1.0000 1.0000
     714.000 0.9357 0.9939 1.0000 0.9882 1.0000 1.0000 0.9998 0.9529 1.0000 1.0000 1.0000
     714.500 0.9344 0.9924 1.0000 0.9882 1.0000 1.0000 0.9997 0.9530 1.0000 1.0000 1.0000
     715.000 0.9323 0.9901 1.0000 0.9883 1.0000 1.0000 0.9996 0.9532 1.0000 1.0000 1.0000
     715.500 0.9314 0.9890 1.0000 0.9884 1.0000 1.0000 0.9995 0.9533 1.0000 1.0000 1.0000
     716.000 0.9285 0.9859 1.0000 0.9884 1.0000 1.0000 0.9993 0.9534 1.0000 1.0000 1.0000
     716.500 0.9146 0.9713 1.0000 0.9885 1.0000 1.0000 0.9990 0.9535 1.0000 1.0000 1.0000
     717.000 0.8847 0.9396 1.0000 0.9887 1.0000 1.0000 0.9987 0.9537 1.0000 1.0000 1.0000
     717.500 0.8571 0.9103 1.0000 0.9888 1.0000 1.0000 0.9983 0.9538 1.0000 1.0000 1.0000
     718.000 0.8478 0.9004 1.0000 0.9890 1.0000 1.0000 0.9980 0.9539 1.0000 1.0000 1.0000
     718.500 0.8328 0.8844 1.0000 0.9891 1.0000 1.0000 0.9978 0.9541 1.0000 1.0000 1.0000
     719.000 0.8207 0.8715 1.0000 0.9893 1.0000 1.0000 0.9976 0.9542 1.0000 1.0000 1.0000
     719.500 0.8204 0.8709 1.0000 0.9895 1.0000 1.0000 0.9975 0.9543 1.0000 1.0000 1.0000
     720.000 0.8238 0.8741 1.0000 0.9897 1.0000 1.0000 0.9976 0.9544 1.0000 1.0000 1.0000
     720.500 0.8403 0.8912 1.0000 0.9899 1.0000 1.0000 0.9978 0.9546 1.0000 1.0000 1.0000
     721.000 0.8742 0.9266 1.0000 0.9900 1.0000 1.0000 0.9981 0.9547 1.0000 1.0000 1.0000
     721.500 0.9056 0.9595 1.0000 0.9902 1.0000 1.0000 0.9982 0.9548 1.0000 1.0000 1.0000
     722.000 0.9167 0.9710 1.0000 0.9904 1.0000 1.0000 0.9983 0.9549 1.0000 1.0000 1.0000
     722.500 0.9133 0.9670 1.0000 0.9905 1.0000 1.0000 0.9984 0.9551 1.0000 1.0000 1.0000
     723.000 0.8916 0.9439 1.0000 0.9907 1.0000 1.0000 0.9983 0.9552 1.0000 1.0000 1.0000
     723.500 0.8591 0.9093 1.0000 0.9908 1.0000 1.0000 0.9982 0.9553 1.0000 1.0000 1.0000
     724.000 0.8564 0.9063 1.0000 0.9909 1.0000 1.0000 0.9981 0.9554 1.0000 1.0000 1.0000
     724.500 0.8581 0.9079 1.0000 0.9910 1.0000 1.0000 0.9981 0.9555 1.0000 1.0000 1.0000
     725.000 0.8624 0.9123 1.0000 0.9912 1.0000 1.0000 0.9980 0.9557 1.0000 1.0000 1.0000
     725.500 0.8665 0.9163 1.0000 0.9913 1.0000 1.0000 0.9981 0.9558 1.0000 1.0000 1.0000
     726.000 0.8770 0.9271 1.0000 0.9914 1.0000 1.0000 0.9981 0.9559 1.0000 1.0000 1.0000
     726.500 0.8771 0.9270 1.0000 0.9915 1.0000 1.0000 0.9981 0.9560 1.0000 1.0000 1.0000
     727.000 0.8765 0.9262 1.0000 0.9916 1.0000 1.0000 0.9982 0.9562 1.0000 1.0000 1.0000
     727.500 0.8644 0.9131 1.0000 0.9917 1.0000 1.0000 0.9983 0.9563 1.0000 1.0000 1.0000
     728.000 0.8618 0.9100 1.0000 0.9918 1.0000 1.0000 0.9983 0.9564 1.0000 1.0000 1.0000
     728.500 0.8850 0.9343 1.0000 0.9920 1.0000 1.0000 0.9984 0.9565 1.0000 1.0000 1.0000
     729.000 0.8829 0.9317 1.0000 0.9921 1.0000 1.0000 0.9985 0.9566 1.0000 1.0000 1.0000
     729.500 0.8845 0.9331 1.0000 0.9922 1.0000 1.0000 0.9986 0.9567 1.0000 1.0000 1.0000
     730.000 0.8945 0.9434 1.0000 0.9923 1.0000 1.0000 0.9987 0.9569 1.0000 1.0000 1.0000
     730.500 0.8901 0.9384 1.0000 0.9924 1.0000 1.0000 0.9988 0.9570 1.0000 1.0000 1.0000
     731.000 0.8910 0.9391 1.0000 0.9925 1.0000 1.0000 0.9989 0.9571 1.0000 1.0000 1.0000
     731.500 0.8950 0.9430 1.0000 0.9925 1.0000 1.0000 0.9990 0.9572 1.0000 1.0000 1.0000
     732.000 0.9055 0.9538 1.0000 0.9926 1.0000 1.0000 0.9991 0.9573 1.0000 1.0000 1.0000
     732.500 0.9220 0.9708 1.0000 0.9927 1.0000 1.0000 0.9992 0.9574 1.0000 1.0000 1.0000
     733.000 0.9291 0.9780 1.0000 0.9927 1.0000 1.0000 0.9993 0.9575 1.0000 1.0000 1.0000
     733.500 0.9295 0.9782 1.0000 0.9927 1.0000 1.0000 0.9994 0.9577 1.0000 1.0000 1.0000
     734.000 0.9343 0.9830 1.0000 0.9928 1.0000 1.0000 0.9995 0.9578 1.0000 1.0000 1.0000
     734.500 0.9360 0.9846 1.0000 0.9928 1.0000 1.0000 0.9996 0.9579 1.0000 1.0000 1.0000
     735.000 0.9349 0.9833 1.0000 0.9928 1.0000 1.0000 0.9996 0.9580 1.0000 1.0000 1.0000
     735.500 0.9356 0.9838 1.0000 0.9929 1.0000 1.0000 0.9997 0.9581 1.0000 1.0000 1.0000
     736.000 0.9342 0.9822 1.0000 0.9929 1.0000 1.0000 0.9997 0.9582 1.0000 1.0000 1.0000
     736.500 0.9333 0.9811 1.0000 0.9929 1.0000 1.0000 0.9997 0.9583 1.0000 1.0000 1.0000
     737.000 0.9349 0.9826 1.0000 0.9929 1.0000 1.0000 0.9997 0.9585 1.0000 1.0000 1.0000
     737.500 0.9391 0.9869 1.0000 0.9929 1.0000 1.0000 0.9997 0.9586 1.0000 1.0000 1.0000
     738.000 0.9423 0.9901 1.0000 0.9929 1.0000 1.0000 0.9998 0.9587 1.0000 1.0000 1.0000
     738.500 0.9426 0.9903 1.0000 0.9929 1.0000 1.0000 0.9998 0.9588 1.0000 1.0000 1.0000
     739.000 0.9436 0.9912 1.0000 0.9929 1.0000 1.0000 0.9998 0.9589 1.0000 1.0000 1.0000
     739.500 0.9441 0.9917 1.0000 0.9929 1.0000 1.0000 0.9998 0.9590 1.0000 1.0000 1.0000
     740.000 0.9453 0.9928 1.0000 0.9929 1.0000 1.0000 0.9999 0.9591 1.0000 1.0000 1.0000
     740.500 0.9477 0.9952 1.0000 0.9929 1.0000 1.0000 0.9999 0.9592 1.0000 1.0000 1.0000
     741.000 0.9485 0.9959 1.0000 0.9928 1.0000 1.0000 0.9999 0.9593 1.0000 1.0000 1.0000
     741.500 0.9491 0.9965 1.0000 0.9928 1.0000 1.0000 0.9999 0.9594 1.0000 1.0000 1.0000
     742.000 0.9499 0.9973 1.0000 0.9927 1.0000 1.0000 0.9999 0.9596 1.0000 1.0000 1.0000
     742.500 0.9500 0.9973 1.0000 0.9927 1.0000 1.0000 0.9999 0.9597 1.0000 1.0000 1.0000
     743.000 0.9509 0.9982 1.0000 0.9927 1.0000 1.0000 1.0000 0.9598 1.0000 1.0000 1.0000
     743.500 0.9519 0.9991 1.0000 0.9926 1.0000 1.0000 1.0000 0.9599 1.0000 1.0000 1.0000
     744.000 0.9519 0.9991 1.0000 0.9925 1.0000 1.0000 1.0000 0.9600 1.0000 1.0000 1.0000
     744.500 0.9521 0.9992 1.0000 0.9925 1.0000 1.0000 1.0000 0.9601 1.0000 1.0000 1.0000
     745.000 0.9524 0.9995 1.0000 0.9925 1.0000 1.0000 1.0000 0.9602 1.0000 1.0000 1.0000
     745.500 0.9525 0.9994 1.0000 0.9924 1.0000 1.0000 1.0000 0.9603 1.0000 1.0000 1.0000
     746.000 0.9527 0.9995 1.0000 0.9924 1.0000 1.0000 1.0000 0.9604 1.0000 1.0000 1.0000
     746.500 0.9529 0.9997 1.0000 0.9924 1.0000 1.0000 1.0000 0.9605 1.0000 1.0000 1.0000
     747.000 0.9530 0.9997 1.0000 0.9924 1.0000 1.0000 1.0000 0.9606 1.0000 1.0000 1.0000
     747.500 0.9532 0.9997 1.0000 0.9924 1.0000 1.0000 1.0000 0.9607 1.0000 1.0000 1.0000
     748.000 0.9534 0.9998 1.0000 0.9925 1.0000 1.0000 1.0000 0.9608 1.0000 1.0000 1.0000
     748.500 0.9536 0.9998 1.0000 0.9926 1.0000 1.0000 1.0000 0.9609 1.0000 1.0000 1.0000
     749.000 0.9539 0.9999 1.0000 0.9927 1.0000 1.0000 1.0000 0.9610 1.0000 1.0000 1.0000
     749.500 0.9541 0.9999 1.0000 0.9928 1.0000 1.0000 1.0000 0.9611 1.0000 1.0000 1.0000
     750.000 0.9543 0.9999 1.0000 0.9929 1.0000 1.0000 1.0000 0.9612 1.0000 1.0000 1.0000
     750.500 0.9546 0.9999 1.0000 0.9931 1.0000 1.0000 1.0000 0.9613 1.0000 1.0000 1.0000
     751.000 0.9549 0.9999 1.0000 0.9933 1.0000 1.0000 1.0000 0.9614 1.0000 1.0000 1.0000
     751.500 0.9552 0.9999 1.0000 0.9935 1.0000 1.0000 1.0000 0.9615 1.0000 1.0000 1.0000
     752.000 0.9555 0.9999 1.0000 0.9936 1.0000 1.0000 1.0000 0.9616 1.0000 1.0000 1.0000
     752.500 0.9558 0.9999 1.0000 0.9938 1.0000 1.0000 1.0000 0.9617 1.0000 1.0000 1.0000
     753.000 0.9561 1.0000 1.0000 0.9940 1.0000 1.0000 1.0000 0.9618 1.0000 1.0000 1.0000
     753.500 0.9563 0.9999 1.0000 0.9942 1.0000 1.0000 1.0000 0.9619 1.0000 1.0000 1.0000
     754.000 0.9566 0.9999 1.0000 0.9943 1.0000 1.0000 1.0000 0.9620 1.0000 1.0000 1.0000
     754.500 0.9568 0.9999 1.0000 0.9945 1.0000 1.0000 1.0000 0.9621 1.0000 1.0000 1.0000
     755.000 0.9570 0.9999 1.0000 0.9947 1.0000 1.0000 1.0000 0.9622 1.0000 1.0000 1.0000
     755.500 0.9573 0.9999 1.0000 0.9948 1.0000 1.0000 1.0000 0.9623 1.0000 1.0000 1.0000
     756.000 0.9575 1.0000 1.0000 0.9949 1.0000 1.0000 1.0000 0.9624 1.0000 1.0000 1.0000
     756.500 0.9578 1.0000 1.0000 0.9950 1.0000 1.0000 1.0000 0.9625 1.0000 1.0000 1.0000
     757.000 0.9580 1.0000 1.0000 0.9952 1.0000 1.0000 1.0000 0.9626 1.0000 1.0000 1.0000
     757.500 0.9581 1.0000 1.0000 0.9953 1.0000 1.0000 1.0000 0.9627 1.0000 1.0000 1.0000
     758.000 0.9580 1.0000 0.9997 0.9953 1.0000 1.0000 1.0000 0.9628 1.0000 1.0000 1.0000
     758.500 0.9530 1.0000 0.9942 0.9954 1.0000 1.0000 1.0000 0.9629 1.0000 1.0000 1.0000
     759.000 0.8997 1.0000 0.9385 0.9955 1.0000 1.0000 1.0000 0.9630 1.0000 1.0000 1.0000
     759.500 0.6911 1.0000 0.7209 0.9955 1.0000 1.0000 1.0000 0.9631 1.0000 1.0000 1.0000
     760.000 0.3981 1.0000 0.4152 0.9956 1.0000 1.0000 1.0000 0.9632 1.0000 1.0000 1.0000
     760.500 0.2474 1.0000 0.2580 0.9956 1.0000 1.0000 1.0000 0.9633 1.0000 1.0000 1.0000
     761.000 0.2608 1.0000 0.2719 0.9957 1.0000 1.0000 1.0000 0.9634 1.0000 1.0000 1.0000
     761.500 0.4080 1.0000 0.4253 0.9957 1.0000 1.0000 1.0000 0.9635 1.0000 1.0000 1.0000
     762.000 0.5661 1.0000 0.5901 0.9956 1.0000 1.0000 1.0000 0.9636 1.0000 1.0000 1.0000
     762.500 0.5397 1.0000 0.5626 0.9954 1.0000 1.0000 1.0000 0.9637 1.0000 1.0000 1.0000
     763.000 0.4497 1.0000 0.4687 0.9953 1.0000 1.0000 1.0000 0.9638 1.0000 1.0000 1.0000
     763.500 0.4502 1.0000 0.4693 0.9954 1.0000 1.0000 1.0000 0.9639 1.0000 1.0000 1.0000
     764.000 0.5010 1.0000 0.5222 0.9954 1.0000 1.0000 1.0000 0.9640 1.0000 1.0000 1.0000
     764.500 0.5637 1.0000 0.5874 0.9954 1.0000 1.0000 1.0000 0.9641 1.0000 1.0000 1.0000
     765.000 0.6371 1.0000 0.6638 0.9954 1.0000 1.0000 1.0000 0.9642 1.0000 1.0000 1.0000
     765.500 0.7050 1.0000 0.7345 0.9954 1.0000 1.0000 1.0000 0.9642 1.0000 1.0000 1.0000
     766.000 0.7601 1.0000 0.7918 0.9955 1.0000 1.0000 1.0000 0.9643 1.0000 1.0000 1.0000
     766.500 0.8076 1.0000 0.8411 0.9955 1.0000 1.0000 1.0000 0.9644 1.0000 1.0000 1.0000
     767.000 0.8573 1.0000 0.8928 0.9955 1.0000 1.0000 1.0000 0.9645 1.0000 1.0000 1.0000
     767.500 0.8906 1.0000 0.9274 0.9955 1.0000 1.0000 1.0000 0.9646 1.0000 1.0000 1.0000
     768.000 0.9093 1.0000 0.9468 0.9955 1.0000 1.0000 1.0000 0.9647 1.0000 1.0000 1.0000
     768.500 0.9211 1.0000 0.9590 0.9955 1.0000 1.0000 1.0000 0.9648 1.0000 1.0000 1.0000
     769.000 0.9284 1.0000 0.9666 0.9955 1.0000 1.0000 1.0000 0.9649 1.0000 1.0000 1.0000
     769.500 0.9358 1.0000 0.9742 0.9955 1.0000 1.0000 1.0000 0.9650 1.0000 1.0000 1.0000
     770.000 0.9460 1.0000 0.9847 0.9955 1.0000 1.0000 1.0000 0.9651 1.0000 1.0000 1.0000
     770.500 0.9535 1.0000 0.9924 0.9955 1.0000 1.0000 1.0000 0.9652 1.0000 1.0000 1.0000
     771.000 0.9569 1.0000 0.9959 0.9954 1.0000 1.0000 1.0000 0.9653 1.0000 1.0000 1.0000
     771.500 0.9582 1.0000 0.9973 0.9953 1.0000 1.0000 1.0000 0.9654 1.0000 1.0000 1.0000
     772.000 0.9590 1.0000 0.9980 0.9953 1.0000 1.0000 1.0000 0.9654 1.0000 1.0000 1.0000
     772.500 0.9594 1.0000 0.9984 0.9952 1.0000 1.0000 1.0000 0.9655 1.0000 1.0000 1.0000
     773.000 0.9596 1.0000 0.9986 0.9951 1.0000 1.0000 1.0000 0.9656 1.0000 1.0000 1.0000
     773.500 0.9600 1.0000 0.9990 0.9951 1.0000 1.0000 1.0000 0.9657 1.0000 1.0000 1.0000
     774.000 0.9603 1.0000 0.9993 0.9950 1.0000 1.0000 1.0000 0.9658 1.0000 1.0000 1.0000
     774.500 0.9605 1.0000 0.9995 0.9949 1.0000 1.0000 1.0000 0.9659 1.0000 1.0000 1.0000
     775.000 0.9606 1.0000 0.9997 0.9948 1.0000 1.0000 1.0000 0.9660 1.0000 1.0000 1.0000
     775.500 0.9607 1.0000 0.9998 0.9947 1.0000 1.0000 1.0000 0.9661 1.0000 1.0000 1.0000
     776.000 0.9608 1.0000 0.9999 0.9946 1.0000 1.0000 1.0000 0.9662 1.0000 1.0000 1.0000
     776.500 0.9609 1.0000 0.9999 0.9945 1.0000 1.0000 1.0000 0.9662 1.0000 1.0000 1.0000
     777.000 0.9609 1.0000 1.0000 0.9945 1.0000 1.0000 1.0000 0.9663 1.0000 1.0000 1.0000
     777.500 0.9610 1.0000 1.0000 0.9944 1.0000 1.0000 1.0000 0.9664 1.0000 1.0000 1.0000
     778.000 0.9610 1.0000 1.0000 0.9944 1.0000 1.0000 1.0000 0.9665 1.0000 1.0000 1.0000
     778.500 0.9611 1.0000 1.0000 0.9944 1.0000 1.0000 1.0000 0.9666 1.0000 1.0000 1.0000
     779.000 0.9611 1.0000 1.0000 0.9944 1.0000 1.0000 1.0000 0.9667 1.0000 1.0000 1.0000
     779.500 0.9612 0.9999 1.0000 0.9944 1.0000 1.0000 1.0000 0.9667 1.0000 1.0000 1.0000
     780.000 0.9614 0.9999 1.0000 0.9944 1.0000 1.0000 1.0000 0.9668 1.0000 1.0000 1.0000
     780.500 0.9615 0.9999 1.0000 0.9945 1.0000 1.0000 1.0000 0.9669 1.0000 1.0000 1.0000
     781.000 0.9617 1.0000 1.0000 0.9946 1.0000 1.0000 1.0000 0.9670 1.0000 1.0000 1.0000
     781.500 0.9619 1.0000 1.0000 0.9947 1.0000 1.0000 1.0000 0.9671 1.0000 1.0000 1.0000
     782.000 0.9620 1.0000 1.0000 0.9947 1.0000 1.0000 1.0000 0.9671 1.0000 1.0000 1.0000
     782.500 0.9622 0.9999 1.0000 0.9948 1.0000 1.0000 1.0000 0.9672 1.0000 1.0000 1.0000
     783.000 0.9624 0.9999 1.0000 0.9950 1.0000 1.0000 1.0000 0.9673 1.0000 1.0000 1.0000
     783.500 0.9626 0.9999 1.0000 0.9951 1.0000 1.0000 1.0000 0.9674 1.0000 1.0000 1.0000
     784.000 0.9628 0.9999 1.0000 0.9953 1.0000 1.0000 1.0000 0.9675 1.0000 1.0000 1.0000
     784.500 0.9629 0.9997 1.0000 0.9954 1.0000 1.0000 1.0000 0.9676 1.0000 1.0000 1.0000
     785.000 0.9626 0.9993 1.0000 0.9955 1.0000 1.0000 1.0000 0.9676 1.0000 1.0000 1.0000
     785.500 0.9626 0.9990 1.0000 0.9957 1.0000 1.0000 1.0000 0.9677 1.0000 1.0000 1.0000
     786.000 0.9624 0.9987 1.0000 0.9957 1.0000 1.0000 1.0000 0.9678 1.0000 1.0000 1.0000
     786.500 0.9610 0.9970 1.0000 0.9958 1.0000 1.0000 1.0000 0.9679 1.0000 1.0000 1.0000
     787.000 0.9597 0.9956 1.0000 0.9959 1.0000 1.0000 0.9999 0.9680 1.0000 1.0000 1.0000
     787.500 0.9594 0.9951 1.0000 0.9960 1.0000 1.0000 0.9999 0.9680 1.0000 1.0000 1.0000
     788.000 0.9583 0.9939 1.0000 0.9961 1.0000 1.0000 0.9999 0.9681 1.0000 1.0000 1.0000
     788.500 0.9571 0.9924 1.0000 0.9962 1.0000 1.0000 0.9999 0.9682 1.0000 1.0000 1.0000
     789.000 0.9540 0.9890 1.0000 0.9963 1.0000 1.0000 0.9999 0.9683 1.0000 1.0000 1.0000
     789.500 0.9507 0.9854 1.0000 0.9964 1.0000 1.0000 0.9999 0.9684 1.0000 1.0000 1.0000
     790.000 0.9501 0.9847 1.0000 0.9964 1.0000 1.0000 0.9999 0.9684 1.0000 1.0000 1.0000
     790.500 0.9509 0.9854 1.0000 0.9965 1.0000 1.0000 0.9999 0.9685 1.0000 1.0000 1.0000
     791.000 0.9516 0.9860 1.0000 0.9966 1.0000 1.0000 0.9999 0.9686 1.0000 1.0000 1.0000
     791.500 0.9539 0.9883 1.0000 0.9966 1.0000 1.0000 0.9999 0.9687 1.0000 1.0000 1.0000
     792.000 0.9545 0.9887 1.0000 0.9967 1.0000 1.0000 0.9999 0.9688 1.0000 1.0000 1.0000
     792.500 0.9523 0.9862 1.0000 0.9968 1.0000 1.0000 0.9999 0.9688 1.0000 1.0000 1.0000
     793.000 0.9534 0.9872 1.0000 0.9968 1.0000 1.0000 0.9999 0.9689 1.0000 1.0000 1.0000
     793.500 0.9596 0.9935 1.0000 0.9969 1.0000 1.0000 0.9999 0.9690 1.0000 1.0000 1.0000
     794.000 0.9633 0.9972 1.0000 0.9970 1.0000 1.0000 0.9999 0.9691 1.0000 1.0000 1.0000
     794.500 0.9631 0.9968 1.0000 0.9970 1.0000 1.0000 0.9999 0.9692 1.0000 1.0000 1.0000
     795.000 0.9616 0.9952 1.0000 0.9971 1.0000 1.0000 0.9999 0.9692 1.0000 1.0000 1.0000
     795.500 0.9589 0.9922 1.0000 0.9971 1.0000 1.0000 0.9999 0.9693 1.0000 1.0000 1.0000
     796.000 0.9509 0.9839 1.0000 0.9971 1.0000 1.0000 0.9999 0.9694 1.0000 1.0000 1.0000
     796.500 0.9478 0.9806 1.0000 0.9972 1.0000 1.0000 0.9999 0.9695 1.0000 1.0000 1.0000
     797.000 0.9541 0.9870 1.0000 0.9972 1.0000 1.0000 0.9999 0.9696 1.0000 1.0000 1.0000
     797.500 0.9580 0.9910 1.0000 0.9972 1.0000 1.0000 0.9999 0.9696 1.0000 1.0000 1.0000
     798.000 0.9602 0.9931 1.0000 0.9972 1.0000 1.0000 0.9999 0.9697 1.0000 1.0000 1.0000
     798.500 0.9596 0.9924 1.0000 0.9972 1.0000 1.0000 0.9999 0.9698 1.0000 1.0000 1.0000
     799.000 0.9600 0.9926 1.0000 0.9973 1.0000 1.0000 0.9999 0.9699 1.0000 1.0000 1.0000
     799.500 0.9602 0.9927 1.0000 0.9973 1.0000 1.0000 0.9999 0.9699 1.0000 1.0000 1.0000
     800.000 0.9570 0.9893 1.0000 0.9973 1.0000 1.0000 0.9999 0.9700 1.0000 1.0000 1.0000
     800.500 0.9547 0.9869 1.0000 0.9973 1.0000 1.0000 0.9999 0.9701 1.0000 1.0000 1.0000
     801.000 0.9539 0.9860 1.0000 0.9973 1.0000 1.0000 0.9999 0.9701 1.0000 1.0000 1.0000
     801.500 0.9547 0.9867 1.0000 0.9974 1.0000 1.0000 0.9999 0.9702 1.0000 1.0000 1.0000
     802.000 0.9563 0.9883 1.0000 0.9974 1.0000 1.0000 0.9999 0.9703 1.0000 1.0000 1.0000
     802.500 0.9555 0.9874 1.0000 0.9974 1.0000 1.0000 0.9999 0.9704 1.0000 1.0000 1.0000
     803.000 0.9551 0.9869 1.0000 0.9974 1.0000 1.0000 0.9999 0.9704 1.0000 1.0000 1.0000
     803.500 0.9564 0.9882 1.0000 0.9974 1.0000 1.0000 0.9999 0.9705 1.0000 1.0000 1.0000
     804.000 0.9572 0.9889 1.0000 0.9974 1.0000 1.0000 0.9999 0.9706 1.0000 1.0000 1.0000
     804.500 0.9576 0.9893 1.0000 0.9973 1.0000 1.0000 0.9999 0.9707 1.0000 1.0000 1.0000
     805.000 0.9608 0.9925 1.0000 0.9973 1.0000 1.0000 0.9999 0.9707 1.0000 1.0000 1.0000
     805.500 0.9638 0.9955 1.0000 0.9973 1.0000 1.0000 0.9999 0.9708 1.0000 1.0000 1.0000
     806.000 0.9640 0.9956 1.0000 0.9973 1.0000 1.0000 0.9999 0.9709 1.0000 1.0000 1.0000
     806.500 0.9636 0.9953 1.0000 0.9972 1.0000 1.0000 0.9999 0.9709 1.0000 1.0000 1.0000
     807.000 0.9635 0.9952 1.0000 0.9972 1.0000 1.0000 0.9999 0.9710 1.0000 1.0000 1.0000
     807.500 0.9638 0.9955 1.0000 0.9971 1.0000 1.0000 0.9999 0.9711 1.0000 1.0000 1.0000
     808.000 0.9634 0.9950 1.0000 0.9971 1.0000 1.0000 0.9999 0.9712 1.0000 1.0000 1.0000
     808.500 0.9619 0.9935 1.0000 0.9970 1.0000 1.0000 0.9999 0.9712 1.0000 1.0000 1.0000
     809.000 0.9607 0.9922 1.0000 0.9969 1.0000 1.0000 0.9999 0.9713 1.0000 1.0000 1.0000
     809.500 0.9580 0.9895 1.0000 0.9969 1.0000 1.0000 0.9999 0.9714 1.0000 1.0000 1.0000
     810.000 0.9580 0.9895 1.0000 0.9968 1.0000 1.0000 0.9999 0.9715 1.0000 1.0000 1.0000
     810.500 0.9594 0.9910 1.0000 0.9967 1.0000 1.0000 0.9998 0.9715 1.0000 1.0000 1.0000
     811.000 0.9559 0.9873 1.0000 0.9966 1.0000 1.0000 0.9998 0.9716 1.0000 1.0000 1.0000
     811.500 0.9510 0.9824 1.0000 0.9966 1.0000 1.0000 0.9997 0.9716 1.0000 1.0000 1.0000
     812.000 0.9481 0.9794 1.0000 0.9965 1.0000 1.0000 0.9996 0.9717 1.0000 1.0000 1.0000
     812.500 0.9456 0.9769 1.0000 0.9965 1.0000 1.0000 0.9996 0.9718 1.0000 1.0000 1.0000
     813.000 0.9340 0.9650 1.0000 0.9964 1.0000 1.0000 0.9995 0.9719 1.0000 1.0000 1.0000
     813.500 0.9116 0.9420 1.0000 0.9964 1.0000 1.0000 0.9993 0.9719 1.0000 1.0000 1.0000
     814.000 0.9032 0.9334 1.0000 0.9963 1.0000 1.0000 0.9992 0.9720 1.0000 1.0000 1.0000
     814.500 0.8986 0.9287 1.0000 0.9963 1.0000 1.0000 0.9991 0.9721 1.0000 1.0000 1.0000
     815.000 0.8851 0.9149 1.0000 0.9962 1.0000 1.0000 0.9989 0.9721 1.0000 1.0000 1.0000
     815.500 0.8714 0.9009 1.0000 0.9962 1.0000 1.0000 0.9988 0.9722 1.0000 1.0000 1.0000
     816.000 0.8616 0.8907 1.0000 0.9962 1.0000 1.0000 0.9987 0.9723 1.0000 1.0000 1.0000
     816.500 0.8551 0.8841 1.0000 0.9962 1.0000 1.0000 0.9986 0.9724 1.0000 1.0000 1.0000
     817.000 0.8731 0.9027 1.0000 0.9962 1.0000 1.0000 0.9985 0.9724 1.0000 1.0000 1.0000
     817.500 0.8740 0.9035 1.0000 0.9962 1.0000 1.0000 0.9985 0.9725 1.0000 1.0000 1.0000
     818.000 0.8486 0.8771 1.0000 0.9963 1.0000 1.0000 0.9985 0.9725 1.0000 1.0000 1.0000
     818.500 0.8664 0.8954 1.0000 0.9963 1.0000 1.0000 0.9986 0.9726 1.0000 1.0000 1.0000
     819.000 0.8833 0.9127 1.0000 0.9964 1.0000 1.0000 0.9987 0.9727 1.0000 1.0000 1.0000
     819.500 0.8853 0.9145 1.0000 0.9964 1.0000 1.0000 0.9987 0.9727 1.0000 1.0000 1.0000
     820.000 0.8839 0.9128 1.0000 0.9965 1.0000 1.0000 0.9988 0.9728 1.0000 1.0000 1.0000
     820.500 0.9151 0.9450 1.0000 0.9966 1.0000 1.0000 0.9989 0.9729 1.0000 1.0000 1.0000
     821.000 0.9392 0.9697 1.0000 0.9967 1.0000 1.0000 0.9988 0.9729 1.0000 1.0000 1.0000
     821.500 0.9366 0.9668 1.0000 0.9968 1.0000 1.0000 0.9988 0.9730 1.0000 1.0000 1.0000
     822.000 0.9203 0.9499 1.0000 0.9969 1.0000 1.0000 0.9988 0.9731 1.0000 1.0000 1.0000
     822.500 0.8671 0.8947 1.0000 0.9970 1.0000 1.0000 0.9989 0.9731 1.0000 1.0000 1.0000
     823.000 0.7991 0.8244 1.0000 0.9972 1.0000 1.0000 0.9989 0.9732 1.0000 1.0000 1.0000
     823.500 0.8287 0.8547 1.0000 0.9973 1.0000 1.0000 0.9989 0.9732 1.0000 1.0000 1.0000
     824.000 0.8972 0.9253 1.0000 0.9974 1.0000 1.0000 0.9989 0.9733 1.0000 1.0000 1.0000
     824.500 0.9257 0.9544 1.0000 0.9975 1.0000 1.0000 0.9989 0.9734 1.0000 1.0000 1.0000
     825.000 0.9339 0.9627 1.0000 0.9976 1.0000 1.0000 0.9990 0.9735 1.0000 1.0000 1.0000
     825.500 0.9268 0.9551 1.0000 0.9976 1.0000 1.0000 0.9991 0.9735 1.0000 1.0000 1.0000
     826.000 0.9187 0.9466 1.0000 0.9977 1.0000 1.0000 0.9992 0.9736 1.0000 1.0000 1.0000
     826.500 0.9347 0.9629 1.0000 0.9978 1.0000 1.0000 0.9992 0.9736 1.0000 1.0000 1.0000
     827.000 0.9394 0.9676 1.0000 0.9979 1.0000 1.0000 0.9992 0.9737 1.0000 1.0000 1.0000
     827.500 0.9055 0.9326 1.0000 0.9980 1.0000 1.0000 0.9991 0.9738 1.0000 1.0000 1.0000
     828.000 0.8871 0.9135 1.0000 0.9981 1.0000 1.0000 0.9991 0.9738 1.0000 1.0000 1.0000
     828.500 0.9018 0.9286 1.0000 0.9981 1.0000 1.0000 0.9991 0.9739 1.0000 1.0000 1.0000
     829.000 0.9029 0.9296 1.0000 0.9982 1.0000 1.0000 0.9991 0.9740 1.0000 1.0000 1.0000
     829.500 0.9082 0.9348 1.0000 0.9983 1.0000 1.0000 0.9991 0.9740 1.0000 1.0000 1.0000
     830.000 0.9217 0.9486 1.0000 0.9983 1.0000 1.0000 0.9992 0.9741 1.0000 1.0000 1.0000
     830.500 0.9238 0.9506 1.0000 0.9984 1.0000 1.0000 0.9992 0.9742 1.0000 1.0000 1.0000
     831.000 0.9356 0.9626 1.0000 0.9984 1.0000 1.0000 0.9992 0.9742 1.0000 1.0000 1.0000
     831.500 0.9327 0.9594 1.0000 0.9985 1.0000 1.0000 0.9993 0.9743 1.0000 1.0000 1.0000
     832.000 0.9171 0.9433 1.0000 0.9985 1.0000 1.0000 0.9994 0.9743 1.0000 1.0000 1.0000
     832.500 0.9289 0.9553 1.0000 0.9985 1.0000 1.0000 0.9994 0.9744 1.0000 1.0000 1.0000
     833.000 0.9425 0.9691 1.0000 0.9985 1.0000 1.0000 0.9995 0.9745 1.0000 1.0000 1.0000
     833.500 0.9384 0.9648 1.0000 0.9986 1.0000 1.0000 0.9995 0.9745 1.0000 1.0000 1.0000
     834.000 0.9419 0.9683 1.0000 0.9986 1.0000 1.0000 0.9996 0.9746 1.0000 1.0000 1.0000
     834.500 0.9541 0.9807 1.0000 0.9986 1.0000 1.0000 0.9996 0.9746 1.0000 1.0000 1.0000
     835.000 0.9574 0.9839 1.0000 0.9986 1.0000 1.0000 0.9997 0.9747 1.0000 1.0000 1.0000
     835.500 0.9545 0.9807 1.0000 0.9986 1.0000 1.0000 0.9997 0.9748 1.0000 1.0000 1.0000
     836.000 0.9548 0.9810 1.0000 0.9986 1.0000 1.0000 0.9998 0.9748 1.0000 1.0000 1.0000
     836.500 0.9574 0.9836 1.0000 0.9986 1.0000 1.0000 0.9998 0.9749 1.0000 1.0000 1.0000
     837.000 0.9608 0.9871 1.0000 0.9987 1.0000 1.0000 0.9998 0.9749 1.0000 1.0000 1.0000
     837.500 0.9615 0.9877 1.0000 0.9987 1.0000 1.0000 0.9998 0.9750 1.0000 1.0000 1.0000
     838.000 0.9625 0.9886 1.0000 0.9987 1.0000 1.0000 0.9998 0.9750 1.0000 1.0000 1.0000
     838.500 0.9651 0.9912 1.0000 0.9987 1.0000 1.0000 0.9998 0.9751 1.0000 1.0000 1.0000
     839.000 0.9661 0.9922 1.0000 0.9987 1.0000 1.0000 0.9999 0.9752 1.0000 1.0000 1.0000
     839.500 0.9676 0.9936 1.0000 0.9987 1.0000 1.0000 0.9999 0.9753 1.0000 1.0000 1.0000
     840.000 0.9680 0.9940 1.0000 0.9987 1.0000 1.0000 0.9999 0.9753 1.0000 1.0000 1.0000
     840.500 0.9667 0.9925 1.0000 0.9987 1.0000 1.0000 0.9999 0.9754 1.0000 1.0000 1.0000
     841.000 0.9655 0.9913 1.0000 0.9986 1.0000 1.0000 0.9999 0.9754 1.0000 1.0000 1.0000
     841.500 0.9671 0.9930 1.0000 0.9986 1.0000 1.0000 0.9999 0.9755 1.0000 1.0000 1.0000
     842.000 0.9684 0.9942 1.0000 0.9986 1.0000 1.0000 0.9999 0.9755 1.0000 1.0000 1.0000
     842.500 0.9704 0.9962 1.0000 0.9986 1.0000 1.0000 0.9999 0.9756 1.0000 1.0000 1.0000
     843.000 0.9705 0.9962 1.0000 0.9986 1.0000 1.0000 0.9999 0.9756 1.0000 1.0000 1.0000
     843.500 0.9693 0.9950 1.0000 0.9986 1.0000 1.0000 0.9999 0.9757 1.0000 1.0000 1.0000
     844.000 0.9696 0.9952 1.0000 0.9985 1.0000 1.0000 0.9999 0.9757 1.0000 1.0000 1.0000
     844.500 0.9709 0.9965 1.0000 0.9985 1.0000 1.0000 0.9999 0.9758 1.0000 1.0000 1.0000
     845.000 0.9720 0.9976 1.0000 0.9985 1.0000 1.0000 0.9999 0.9759 1.0000 1.0000 1.0000
     845.500 0.9729 0.9986 1.0000 0.9984 1.0000 1.0000 1.0000 0.9759 1.0000 1.0000 1.0000
     846.000 0.9728 0.9985 1.0000 0.9984 1.0000 1.0000 1.0000 0.9760 1.0000 1.0000 1.0000
     846.500 0.9726 0.9982 1.0000 0.9983 1.0000 1.0000 1.0000 0.9760 1.0000 1.0000 1.0000
     847.000 0.9734 0.9991 1.0000 0.9983 1.0000 1.0000 1.0000 0.9761 1.0000 1.0000 1.0000
     847.500 0.9736 0.9992 1.0000 0.9982 1.0000 1.0000 1.0000 0.9761 1.0000 1.0000 1.0000
     848.000 0.9725 0.9981 1.0000 0.9981 1.0000 1.0000 1.0000 0.9762 1.0000 1.0000 1.0000
     848.500 0.9718 0.9974 1.0000 0.9981 1.0000 1.0000 1.0000 0.9763 1.0000 1.0000 1.0000
     849.000 0.9719 0.9975 1.0000 0.9980 1.0000 1.0000 1.0000 0.9763 1.0000 1.0000 1.0000
     849.500 0.9723 0.9980 1.0000 0.9979 1.0000 1.0000 1.0000 0.9764 1.0000 1.0000 1.0000
     850.000 0.9724 0.9981 1.0000 0.9979 1.0000 1.0000 1.0000 0.9764 1.0000 1.0000 1.0000
     850.500 0.9719 0.9976 1.0000 0.9978 1.0000 1.0000 0.9999 0.9765 1.0000 1.0000 1.0000
     851.000 0.9711 0.9968 1.0000 0.9977 1.0000 1.0000 1.0000 0.9765 1.0000 1.0000 1.0000
     851.500 0.9704 0.9960 1.0000 0.9976 1.0000 1.0000 1.0000 0.9766 1.0000 1.0000 1.0000
     852.000 0.9712 0.9968 1.0000 0.9976 1.0000 1.0000 1.0000 0.9766 1.0000 1.0000 1.0000
     852.500 0.9722 0.9979 1.0000 0.9975 1.0000 1.0000 1.0000 0.9767 1.0000 1.0000 1.0000
     853.000 0.9728 0.9986 1.0000 0.9975 1.0000 1.0000 1.0000 0.9767 1.0000 1.0000 1.0000
     853.500 0.9728 0.9985 1.0000 0.9975 1.0000 1.0000 1.0000 0.9768 1.0000 1.0000 1.0000
     854.000 0.9724 0.9979 1.0000 0.9975 1.0000 1.0000 1.0000 0.9769 1.0000 1.0000 1.0000
     854.500 0.9724 0.9979 1.0000 0.9975 1.0000 1.0000 1.0000 0.9769 1.0000 1.0000 1.0000
     855.000 0.9731 0.9985 1.0000 0.9975 1.0000 1.0000 1.0000 0.9770 1.0000 1.0000 1.0000
     855.500 0.9734 0.9987 1.0000 0.9975 1.0000 1.0000 1.0000 0.9770 1.0000 1.0000 1.0000
     856.000 0.9738 0.9991 1.0000 0.9976 1.0000 1.0000 1.0000 0.9771 1.0000 1.0000 1.0000
     856.500 0.9743 0.9994 1.0000 0.9976 1.0000 1.0000 1.0000 0.9771 1.0000 1.0000 1.0000
     857.000 0.9742 0.9993 1.0000 0.9977 1.0000 1.0000 1.0000 0.9772 1.0000 1.0000 1.0000
     857.500 0.9740 0.9989 1.0000 0.9977 1.0000 1.0000 1.0000 0.9773 1.0000 1.0000 1.0000
     858.000 0.9745 0.9993 1.0000 0.9978 1.0000 1.0000 1.0000 0.9773 1.0000 1.0000 1.0000
     858.500 0.9749 0.9997 1.0000 0.9978 1.0000 1.0000 1.0000 0.9773 1.0000 1.0000 1.0000
     859.000 0.9750 0.9997 1.0000 0.9979 1.0000 1.0000 1.0000 0.9774 1.0000 1.0000 1.0000
     859.500 0.9752 0.9997 1.0000 0.9980 1.0000 1.0000 1.0000 0.9775 1.0000 1.0000 1.0000
     860.000 0.9755 0.9999 1.0000 0.9980 1.0000 1.0000 1.0000 0.9775 1.0000 1.0000 1.0000
     860.500 0.9756 0.9999 1.0000 0.9981 1.0000 1.0000 1.0000 0.9776 1.0000 1.0000 1.0000
     861.000 0.9757 0.9998 1.0000 0.9982 1.0000 1.0000 1.0000 0.9776 1.0000 1.0000 1.0000
     861.500 0.9757 0.9998 1.0000 0.9983 1.0000 1.0000 1.0000 0.9777 1.0000 1.0000 1.0000
     862.000 0.9759 0.9999 0.9999 0.9984 1.0000 1.0000 1.0000 0.9777 1.0000 1.0000 1.0000
     862.500 0.9761 1.0000 0.9999 0.9984 1.0000 1.0000 1.0000 0.9778 1.0000 1.0000 1.0000
     863.000 0.9762 1.0000 0.9998 0.9985 1.0000 1.0000 1.0000 0.9778 1.0000 1.0000 1.0000
     863.500 0.9763 1.0000 0.9998 0.9986 1.0000 1.0000 1.0000 0.9779 1.0000 1.0000 1.0000
     864.000 0.9764 1.0000 0.9999 0.9986 1.0000 1.0000 1.0000 0.9779 1.0000 1.0000 1.0000
     864.500 0.9766 1.0000 0.9999 0.9987 1.0000 1.0000 1.0000 0.9780 1.0000 1.0000 1.0000
     865.000 0.9767 1.0000 0.9999 0.9987 1.0000 1.0000 1.0000 0.9780 1.0000 1.0000 1.0000
     865.500 0.9768 1.0000 0.9999 0.9988 1.0000 1.0000 1.0000 0.9781 1.0000 1.0000 1.0000
     866.000 0.9769 1.0000 0.9998 0.9988 1.0000 1.0000 1.0000 0.9781 1.0000 1.0000 1.0000
     866.500 0.9770 1.0000 0.9999 0.9989 1.0000 1.0000 1.0000 0.9782 1.0000 1.0000 1.0000
     867.000 0.9771 1.0000 0.9999 0.9989 1.0000 1.0000 1.0000 0.9782 1.0000 1.0000 1.0000
     867.500 0.9772 1.0000 0.9999 0.9990 1.0000 1.0000 1.0000 0.9783 1.0000 1.0000 1.0000
     868.000 0.9773 1.0000 0.9999 0.9990 1.0000 1.0000 1.0000 0.9783 1.0000 1.0000 1.0000
     868.500 0.9774 1.0000 0.9999 0.9990 1.0000 1.0000 1.0000 0.9784 1.0000 1.0000 1.0000
     869.000 0.9775 1.0000 1.0000 0.9991 1.0000 1.0000 1.0000 0.9784 1.0000 1.0000 1.0000
     869.500 0.9776 1.0000 1.0000 0.9991 1.0000 1.0000 1.0000 0.9785 1.0000 1.0000 1.0000
     870.000 0.9776 1.0000 1.0000 0.9991 1.0000 1.0000 1.0000 0.9785 1.0000 1.0000 1.0000
     870.500 0.9777 1.0000 1.0000 0.9991 1.0000 1.0000 1.0000 0.9786 1.0000 1.0000 1.0000
     871.000 0.9777 1.0000 1.0000 0.9992 1.0000 1.0000 1.0000 0.9786 1.0000 1.0000 1.0000
     871.500 0.9778 1.0000 1.0000 0.9992 1.0000 1.0000 1.0000 0.9787 1.0000 1.0000 1.0000
     872.000 0.9779 1.0000 1.0000 0.9992 1.0000 1.0000 1.0000 0.9787 1.0000 1.0000 1.0000
     872.500 0.9780 1.0000 1.0000 0.9992 1.0000 1.0000 1.0000 0.9788 1.0000 1.0000 1.0000
     873.000 0.9781 1.0000 1.0000 0.9992 1.0000 1.0000 1.0000 0.9788 1.0000 1.0000 1.0000
     873.500 0.9781 1.0000 1.0000 0.9992 1.0000 1.0000 1.0000 0.9788 1.0000 1.0000 1.0000
     874.000 0.9782 1.0000 1.0000 0.9993 1.0000 1.0000 1.0000 0.9789 1.0000 1.0000 1.0000
     874.500 0.9783 1.0000 1.0000 0.9993 1.0000 1.0000 1.0000 0.9790 1.0000 1.0000 1.0000
     875.000 0.9783 0.9999 1.0000 0.9993 1.0000 1.0000 1.0000 0.9790 1.0000 1.0000 1.0000
     875.500 0.9783 0.9999 1.0000 0.9993 1.0000 1.0000 1.0000 0.9791 1.0000 1.0000 1.0000
     876.000 0.9783 0.9998 1.0000 0.9993 1.0000 1.0000 1.0000 0.9791 1.0000 1.0000 1.0000
     876.500 0.9783 0.9998 1.0000 0.9993 1.0000 1.0000 1.0000 0.9791 1.0000 1.0000 1.0000
     877.000 0.9784 0.9999 1.0000 0.9993 1.0000 1.0000 1.0000 0.9792 1.0000 1.0000 1.0000
     877.500 0.9785 0.9999 1.0000 0.9993 1.0000 1.0000 1.0000 0.9792 1.0000 1.0000 1.0000
     878.000 0.9783 0.9997 1.0000 0.9993 1.0000 1.0000 1.0000 0.9793 1.0000 1.0000 1.0000
     878.500 0.9782 0.9995 1.0000 0.9993 1.0000 1.0000 1.0000 0.9793 1.0000 1.0000 1.0000
     879.000 0.9783 0.9997 1.0000 0.9993 1.0000 1.0000 1.0000 0.9794 1.0000 1.0000 1.0000
     879.500 0.9785 0.9997 1.0000 0.9993 1.0000 1.0000 1.0000 0.9794 1.0000 1.0000 1.0000
     880.000 0.9783 0.9995 1.0000 0.9993 1.0000 1.0000 1.0000 0.9795 1.0000 1.0000 1.0000
     880.500 0.9780 0.9991 1.0000 0.9993 1.0000 1.0000 1.0000 0.9795 1.0000 1.0000 1.0000
     881.000 0.9779 0.9990 1.0000 0.9993 1.0000 1.0000 1.0000 0.9796 1.0000 1.0000 1.0000
     881.500 0.9779 0.9990 1.0000 0.9993 1.0000 1.0000 1.0000 0.9796 1.0000 1.0000 1.0000
     882.000 0.9775 0.9986 1.0000 0.9993 1.0000 1.0000 1.0000 0.9796 1.0000 1.0000 1.0000
     882.500 0.9776 0.9986 1.0000 0.9992 1.0000 1.0000 1.0000 0.9797 1.0000 1.0000 1.0000
     883.000 0.9780 0.9990 1.0000 0.9992 1.0000 1.0000 1.0000 0.9798 1.0000 1.0000 1.0000
     883.500 0.9777 0.9987 1.0000 0.9992 1.0000 1.0000 1.0000 0.9798 1.0000 1.0000 1.0000
     884.000 0.9779 0.9988 1.0000 0.9992 1.0000 1.0000 1.0000 0.9799 1.0000 1.0000 1.0000
     884.500 0.9783 0.9992 1.0000 0.9992 1.0000 1.0000 1.0000 0.9799 1.0000 1.0000 1.0000
     885.000 0.9780 0.9989 1.0000 0.9992 1.0000 1.0000 1.0000 0.9799 1.0000 1.0000 1.0000
     885.500 0.9770 0.9978 1.0000 0.9992 1.0000 1.0000 1.0000 0.9800 1.0000 1.0000 1.0000
     886.000 0.9753 0.9960 1.0000 0.9991 1.0000 1.0000 1.0000 0.9800 1.0000 1.0000 1.0000
     886.500 0.9756 0.9963 1.0000 0.9991 1.0000 1.0000 1.0000 0.9801 1.0000 1.0000 1.0000
     887.000 0.9767 0.9974 1.0000 0.9991 1.0000 1.0000 1.0000 0.9801 1.0000 1.0000 1.0000
     887.500 0.9765 0.9972 1.0000 0.9991 1.0000 1.0000 1.0000 0.9801 1.0000 1.0000 1.0000
     888.000 0.9749 0.9955 1.0000 0.9991 1.0000 1.0000 0.9999 0.9802 1.0000 1.0000 1.0000
     888.500 0.9758 0.9965 1.0000 0.9991 1.0000 1.0000 0.9999 0.9802 1.0000 1.0000 1.0000
     889.000 0.9779 0.9986 1.0000 0.9991 1.0000 1.0000 0.9999 0.9803 1.0000 1.0000 1.0000
     889.500 0.9775 0.9982 1.0000 0.9991 1.0000 1.0000 0.9999 0.9803 1.0000 1.0000 1.0000
     890.000 0.9760 0.9965 1.0000 0.9991 1.0000 1.0000 0.9999 0.9804 1.0000 1.0000 1.0000
     890.500 0.9757 0.9962 1.0000 0.9991 1.0000 1.0000 0.9999 0.9804 1.0000 1.0000 1.0000
     891.000 0.9764 0.9970 1.0000 0.9991 1.0000 1.0000 0.9998 0.9805 1.0000 1.0000 1.0000
     891.500 0.9754 0.9959 1.0000 0.9991 1.0000 1.0000 0.9997 0.9805 1.0000 1.0000 1.0000
     892.000 0.9728 0.9933 1.0000 0.9991 1.0000 1.0000 0.9997 0.9806 1.0000 1.0000 1.0000
     892.500 0.9706 0.9912 1.0000 0.9991 1.0000 1.0000 0.9996 0.9806 1.0000 1.0000 1.0000
     893.000 0.9612 0.9817 1.0000 0.9991 1.0000 1.0000 0.9994 0.9806 1.0000 1.0000 1.0000
     893.500 0.9555 0.9760 1.0000 0.9991 1.0000 1.0000 0.9992 0.9807 1.0000 1.0000 1.0000
     894.000 0.9581 0.9789 1.0000 0.9990 1.0000 1.0000 0.9990 0.9807 1.0000 1.0000 1.0000
     894.500 0.9490 0.9697 1.0000 0.9990 1.0000 1.0000 0.9988 0.9808 1.0000 1.0000 1.0000
     895.000 0.9313 0.9518 1.0000 0.9990 1.0000 1.0000 0.9985 0.9808 1.0000 1.0000 1.0000
     895.500 0.9090 0.9293 1.0000 0.9990 1.0000 1.0000 0.9983 0.9809 1.0000 1.0000 1.0000
     896.000 0.8942 0.9144 1.0000 0.9989 1.0000 1.0000 0.9980 0.9809 1.0000 1.0000 1.0000
     896.500 0.8736 0.8937 1.0000 0.9989 1.0000 1.0000 0.9976 0.9809 1.0000 1.0000 1.0000
     897.000 0.8671 0.8874 1.0000 0.9989 1.0000 1.0000 0.9972 0.9810 1.0000 1.0000 1.0000
     897.500 0.8812 0.9021 1.0000 0.9989 1.0000 1.0000 0.9969 0.9810 1.0000 1.0000 1.0000
     898.000 0.8921 0.9134 1.0000 0.9989 1.0000 1.0000 0.9966 0.9811 1.0000 1.0000 1.0000
     898.500 0.8465 0.8670 1.0000 0.9989 1.0000 1.0000 0.9963 0.9811 1.0000 1.0000 1.0000
     899.000 0.7823 0.8013 1.0000 0.9989 1.0000 1.0000 0.9962 0.9811 1.0000 1.0000 1.0000
     899.500 0.8111 0.8309 1.0000 0.9989 1.0000 1.0000 0.9960 0.9812 1.0000 1.0000 1.0000
     900.000 0.8507 0.8714 1.0000 0.9989 1.0000 1.0000 0.9959 0.9812 1.0000 1.0000 1.0000
     900.500 0.8314 0.8517 1.0000 0.9990 1.0000 1.0000 0.9958 0.9813 1.0000 1.0000 1.0000
     901.000 0.8349 0.8552 1.0000 0.9990 1.0000 1.0000 0.9959 0.9813 1.0000 1.0000 1.0000
     901.500 0.8529 0.8734 1.0000 0.9990 1.0000 1.0000 0.9961 0.9813 1.0000 1.0000 1.0000
     902.000 0.8551 0.8754 1.0000 0.9990 1.0000 1.0000 0.9963 0.9814 1.0000 1.0000 1.0000
     902.500 0.8473 0.8671 1.0000 0.9991 1.0000 1.0000 0.9966 0.9814 1.0000 1.0000 1.0000
     903.000 0.8616 0.8815 1.0000 0.9991 1.0000 1.0000 0.9968 0.9815 1.0000 1.0000 1.0000
     903.500 0.9057 0.9263 1.0000 0.9991 1.0000 1.0000 0.9970 0.9815 1.0000 1.0000 1.0000
     904.000 0.9356 0.9568 1.0000 0.9992 1.0000 1.0000 0.9972 0.9816 1.0000 1.0000 1.0000
     904.500 0.9306 0.9514 1.0000 0.9992 1.0000 1.0000 0.9973 0.9816 1.0000 1.0000 1.0000
     905.000 0.9239 0.9445 1.0000 0.9992 1.0000 1.0000 0.9973 0.9816 1.0000 1.0000 1.0000
     905.500 0.9241 0.9446 1.0000 0.9992 1.0000 1.0000 0.9974 0.9817 1.0000 1.0000 1.0000
     906.000 0.9175 0.9378 1.0000 0.9993 1.0000 1.0000 0.9973 0.9817 1.0000 1.0000 1.0000
     906.500 0.8843 0.9039 1.0000 0.9993 1.0000 1.0000 0.9972 0.9818 1.0000 1.0000 1.0000
     907.000 0.8535 0.8724 1.0000 0.9993 1.0000 1.0000 0.9971 0.9818 1.0000 1.0000 1.0000
     907.500 0.8427 0.8615 1.0000 0.9994 1.0000 1.0000 0.9970 0.9818 1.0000 1.0000 1.0000
     908.000 0.8369 0.8555 1.0000 0.9994 1.0000 1.0000 0.9969 0.9819 1.0000 1.0000 1.0000
     908.500 0.8419 0.8607 1.0000 0.9994 1.0000 1.0000 0.9967 0.9819 1.0000 1.0000 1.0000
     909.000 0.8455 0.8644 1.0000 0.9994 1.0000 1.0000 0.9967 0.9820 1.0000 1.0000 1.0000
     909.500 0.8491 0.8681 1.0000 0.9995 1.0000 1.0000 0.9966 0.9820 1.0000 1.0000 1.0000
     910.000 0.8540 0.8730 1.0000 0.9995 1.0000 1.0000 0.9966 0.9820 1.0000 1.0000 1.0000
     910.500 0.8460 0.8647 1.0000 0.9995 1.0000 1.0000 0.9966 0.9821 1.0000 1.0000 1.0000
     911.000 0.8639 0.8830 1.0000 0.9995 1.0000 1.0000 0.9967 0.9821 1.0000 1.0000 1.0000
     911.500 0.8731 0.8924 1.0000 0.9995 1.0000 1.0000 0.9967 0.9822 1.0000 1.0000 1.0000
     912.000 0.8584 0.8773 1.0000 0.9996 1.0000 1.0000 0.9967 0.9822 1.0000 1.0000 1.0000
     912.500 0.8742 0.8933 1.0000 0.9996 1.0000 1.0000 0.9968 0.9822 1.0000 1.0000 1.0000
     913.000 0.8380 0.8562 1.0000 0.9996 1.0000 1.0000 0.9968 0.9823 1.0000 1.0000 1.0000
     913.500 0.8013 0.8187 1.0000 0.9996 1.0000 1.0000 0.9968 0.9823 1.0000 1.0000 1.0000
     914.000 0.8344 0.8525 1.0000 0.9996 1.0000 1.0000 0.9968 0.9824 1.0000 1.0000 1.0000
     914.500 0.8809 0.8998 1.0000 0.9996 1.0000 1.0000 0.9969 0.9824 1.0000 1.0000 1.0000
     915.000 0.8639 0.8823 1.0000 0.9996 1.0000 1.0000 0.9970 0.9824 1.0000 1.0000 1.0000
     915.500 0.8000 0.8170 1.0000 0.9996 1.0000 1.0000 0.9971 0.9825 1.0000 1.0000 1.0000
     916.000 0.8196 0.8368 1.0000 0.9997 1.0000 1.0000 0.9972 0.9825 1.0000 1.0000 1.0000
     916.500 0.8848 0.9032 1.0000 0.9997 1.0000 1.0000 0.9973 0.9826 1.0000 1.0000 1.0000
     917.000 0.8884 0.9067 1.0000 0.9997 1.0000 1.0000 0.9975 0.9826 1.0000 1.0000 1.0000
     917.500 0.8460 0.8634 1.0000 0.9997 1.0000 1.0000 0.9976 0.9826 1.0000 1.0000 1.0000
     918.000 0.8292 0.8460 1.0000 0.9997 1.0000 1.0000 0.9978 0.9827 1.0000 1.0000 1.0000
     918.500 0.8650 0.8823 1.0000 0.9997 1.0000 1.0000 0.9979 0.9827 1.0000 1.0000 1.0000
     919.000 0.9030 0.9209 1.0000 0.9997 1.0000 1.0000 0.9981 0.9827 1.0000 1.0000 1.0000
     919.500 0.9146 0.9326 1.0000 0.9997 1.0000 1.0000 0.9982 0.9828 1.0000 1.0000 1.0000
     920.000 0.9161 0.9341 1.0000 0.9997 1.0000 1.0000 0.9983 0.9828 1.0000 1.0000 1.0000
     920.500 0.9352 0.9534 1.0000 0.9997 1.0000 1.0000 0.9984 0.9828 1.0000 1.0000 1.0000
     921.000 0.9320 0.9499 1.0000 0.9997 1.0000 1.0000 0.9985 0.9829 1.0000 1.0000 1.0000
     921.500 0.9138 0.9313 1.0000 0.9997 1.0000 1.0000 0.9986 0.9829 1.0000 1.0000 1.0000
     922.000 0.9139 0.9313 1.0000 0.9997 1.0000 1.0000 0.9987 0.9830 1.0000 1.0000 1.0000
     922.500 0.9289 0.9466 1.0000 0.9997 1.0000 1.0000 0.9987 0.9830 1.0000 1.0000 1.0000
     923.000 0.9273 0.9449 1.0000 0.9997 1.0000 1.0000 0.9986 0.9830 1.0000 1.0000 1.0000
     923.500 0.9195 0.9370 1.0000 0.9997 1.0000 1.0000 0.9985 0.9831 1.0000 1.0000 1.0000
     924.000 0.9107 0.9281 1.0000 0.9997 1.0000 1.0000 0.9984 0.9831 1.0000 1.0000 1.0000
     924.500 0.9038 0.9211 1.0000 0.9997 1.0000 1.0000 0.9983 0.9832 1.0000 1.0000 1.0000
     925.000 0.9030 0.9205 1.0000 0.9997 1.0000 1.0000 0.9981 0.9832 1.0000 1.0000 1.0000
     925.500 0.9113 0.9291 1.0000 0.9997 1.0000 1.0000 0.9978 0.9832 1.0000 1.0000 1.0000
     926.000 0.9169 0.9353 1.0000 0.9997 1.0000 1.0000 0.9974 0.9832 1.0000 1.0000 1.0000
     926.500 0.9198 0.9387 1.0000 0.9997 1.0000 1.0000 0.9969 0.9833 1.0000 1.0000 1.0000
     927.000 0.9286 0.9482 1.0000 0.9997 1.0000 1.0000 0.9963 0.9833 1.0000 1.0000 1.0000
     927.500 0.8928 0.9123 1.0000 0.9997 1.0000 1.0000 0.9954 0.9834 1.0000 1.0000 1.0000
     928.000 0.8435 0.8628 1.0000 0.9997 1.0000 1.0000 0.9943 0.9834 1.0000 1.0000 1.0000
     928.500 0.8340 0.8543 1.0000 0.9997 1.0000 1.0000 0.9929 0.9834 1.0000 1.0000 1.0000
     929.000 0.8175 0.8389 1.0000 0.9997 1.0000 1.0000 0.9912 0.9835 1.0000 1.0000 1.0000
     929.500 0.7926 0.8149 1.0000 0.9997 1.0000 1.0000 0.9893 0.9835 1.0000 1.0000 1.0000
     930.000 0.7492 0.7719 1.0000 0.9997 1.0000 1.0000 0.9871 0.9835 1.0000 1.0000 1.0000
     930.500 0.7143 0.7377 1.0000 0.9997 1.0000 1.0000 0.9848 0.9836 1.0000 1.0000 1.0000
     931.000 0.6776 0.7016 1.0000 0.9997 1.0000 1.0000 0.9822 0.9836 1.0000 1.0000 1.0000
     931.500 0.6352 0.6596 1.0000 0.9997 1.0000 1.0000 0.9792 0.9836 1.0000 1.0000 1.0000
     932.000 0.5572 0.5803 1.0000 0.9997 1.0000 1.0000 0.9760 0.9837 1.0000 1.0000 1.0000
     932.500 0.5253 0.5490 1.0000 0.9997 1.0000 1.0000 0.9730 0.9837 1.0000 1.0000 1.0000
     933.000 0.5302 0.5558 1.0000 0.9997 1.0000 1.0000 0.9702 0.9837 1.0000 1.0000 1.0000
     933.500 0.5103 0.5361 1.0000 0.9997 1.0000 1.0000 0.9678 0.9838 1.0000 1.0000 1.0000
     934.000 0.4359 0.4588 1.0000 0.9997 1.0000 1.0000 0.9660 0.9838 1.0000 1.0000 1.0000
     934.500 0.4140 0.4363 1.0000 0.9997 1.0000 1.0000 0.9647 0.9839 1.0000 1.0000 1.0000
     935.000 0.5036 0.5314 1.0000 0.9997 1.0000 1.0000 0.9638 0.9839 1.0000 1.0000 1.0000
     935.500 0.5268 0.5561 1.0000 0.9997 1.0000 1.0000 0.9631 0.9839 1.0000 1.0000 1.0000
     936.000 0.5013 0.5292 1.0000 0.9997 1.0000 1.0000 0.9630 0.9839 1.0000 1.0000 1.0000
     936.500 0.5119 0.5400 1.0000 0.9997 1.0000 1.0000 0.9639 0.9840 1.0000 1.0000 1.0000
     937.000 0.4907 0.5165 1.0000 0.9996 1.0000 1.0000 0.9657 0.9840 1.0000 1.0000 1.0000
     937.500 0.5167 0.5427 1.0000 0.9996 1.0000 1.0000 0.9679 0.9841 1.0000 1.0000 1.0000
     938.000 0.5296 0.5550 1.0000 0.9996 1.0000 1.0000 0.9702 0.9841 1.0000 1.0000 1.0000
     938.500 0.5545 0.5797 1.0000 0.9996 1.0000 1.0000 0.9723 0.9841 1.0000 1.0000 1.0000
     939.000 0.6547 0.6830 1.0000 0.9995 1.0000 1.0000 0.9742 0.9842 1.0000 1.0000 1.0000
     939.500 0.7558 0.7874 1.0000 0.9995 1.0000 1.0000 0.9756 0.9842 1.0000 1.0000 1.0000
     940.000 0.7355 0.7657 1.0000 0.9995 1.0000 1.0000 0.9766 0.9842 1.0000 1.0000 1.0000
     940.500 0.6743 0.7016 1.0000 0.9995 1.0000 1.0000 0.9770 0.9842 1.0000 1.0000 1.0000
     941.000 0.6728 0.6998 0.9999 0.9994 1.0000 1.0000 0.9773 0.9843 1.0000 1.0000 1.0000
     941.500 0.7103 0.7387 0.9999 0.9994 1.0000 1.0000 0.9775 0.9843 1.0000 1.0000 1.0000
     942.000 0.7071 0.7356 0.9999 0.9993 1.0000 1.0000 0.9772 0.9844 1.0000 1.0000 1.0000
     942.500 0.6265 0.6521 0.9999 0.9993 1.0000 1.0000 0.9766 0.9844 1.0000 1.0000 1.0000
     943.000 0.5668 0.5903 0.9999 0.9993 1.0000 1.0000 0.9761 0.9844 1.0000 1.0000 1.0000
     943.500 0.6153 0.6412 0.9999 0.9993 1.0000 1.0000 0.9755 0.9845 1.0000 1.0000 1.0000
     944.000 0.5764 0.6009 0.9999 0.9993 1.0000 1.0000 0.9750 0.9845 1.0000 1.0000 1.0000
     944.500 0.5371 0.5602 0.9999 0.9993 1.0000 1.0000 0.9746 0.9845 1.0000 1.0000 1.0000
     945.000 0.6235 0.6503 0.9999 0.9993 1.0000 1.0000 0.9746 0.9846 1.0000 1.0000 1.0000
     945.500 0.6394 0.6667 0.9999 0.9993 1.0000 1.0000 0.9749 0.9846 1.0000 1.0000 1.0000
     946.000 0.5894 0.6141 0.9999 0.9993 1.0000 1.0000 0.9755 0.9846 1.0000 1.0000 1.0000
     946.500 0.6045 0.6292 0.9999 0.9993 1.0000 1.0000 0.9763 0.9847 1.0000 1.0000 1.0000
     947.000 0.6526 0.6787 0.9999 0.9994 1.0000 1.0000 0.9771 0.9847 1.0000 1.0000 1.0000
     947.500 0.6502 0.6758 0.9999 0.9994 1.0000 1.0000 0.9776 0.9847 1.0000 1.0000 1.0000
     948.000 0.5819 0.6046 0.9999 0.9994 1.0000 1.0000 0.9781 0.9847 1.0000 1.0000 1.0000
     948.500 0.6107 0.6339 0.9999 0.9995 1.0000 1.0000 0.9787 0.9848 1.0000 1.0000 1.0000
     949.000 0.7144 0.7411 0.9999 0.9995 1.0000 1.0000 0.9793 0.9848 1.0000 1.0000 1.0000
     949.500 0.6603 0.6847 0.9999 0.9995 1.0000 1.0000 0.9798 0.9849 1.0000 1.0000 1.0000
     950.000 0.5786 0.5997 0.9999 0.9996 1.0000 1.0000 0.9801 0.9849 1.0000 1.0000 1.0000
     950.500 0.6401 0.6632 0.9999 0.9996 1.0000 1.0000 0.9804 0.9849 1.0000 1.0000 1.0000
     951.000 0.7433 0.7696 0.9999 0.9996 1.0000 1.0000 0.9810 0.9849 1.0000 1.0000 1.0000
     951.500 0.7268 0.7519 0.9999 0.9996 1.0000 1.0000 0.9818 0.9850 1.0000 1.0000 1.0000
     952.000 0.6193 0.6403 0.9999 0.9996 1.0000 1.0000 0.9823 0.9850 1.0000 1.0000 1.0000
     952.500 0.5904 0.6099 0.9999 0.9997 1.0000 1.0000 0.9830 0.9850 1.0000 1.0000 1.0000
     953.000 0.6492 0.6701 0.9999 0.9997 1.0000 1.0000 0.9839 0.9851 1.0000 1.0000 1.0000
     953.500 0.6890 0.7106 0.9999 0.9997 1.0000 1.0000 0.9847 0.9851 1.0000 1.0000 1.0000
     954.000 0.7013 0.7227 0.9999 0.9997 1.0000 1.0000 0.9854 0.9851 1.0000 1.0000 1.0000
     954.500 0.6876 0.7080 0.9999 0.9997 1.0000 1.0000 0.9861 0.9852 1.0000 1.0000 1.0000
     955.000 0.6905 0.7104 0.9999 0.9997 1.0000 1.0000 0.9869 0.9852 1.0000 1.0000 1.0000
     955.500 0.6732 0.6920 0.9999 0.9997 1.0000 1.0000 0.9877 0.9852 1.0000 1.0000 1.0000
     956.000 0.6575 0.6754 0.9999 0.9997 1.0000 1.0000 0.9884 0.9853 1.0000 1.0000 1.0000
     956.500 0.6656 0.6833 0.9999 0.9997 1.0000 1.0000 0.9889 0.9853 1.0000 1.0000 1.0000
     957.000 0.6791 0.6967 0.9999 0.9998 1.0000 1.0000 0.9894 0.9853 1.0000 1.0000 1.0000
     957.500 0.7496 0.7685 0.9999 0.9998 1.0000 1.0000 0.9901 0.9853 1.0000 1.0000 1.0000
     958.000 0.7574 0.7760 0.9999 0.9998 1.0000 1.0000 0.9908 0.9854 1.0000 1.0000 1.0000
     958.500 0.7216 0.7389 0.9999 0.9998 1.0000 1.0000 0.9914 0.9854 1.0000 1.0000 1.0000
     959.000 0.6864 0.7025 0.9999 0.9998 1.0000 1.0000 0.9919 0.9854 1.0000 1.0000 1.0000
     959.500 0.6609 0.6759 0.9999 0.9998 1.0000 1.0000 0.9925 0.9855 1.0000 1.0000 1.0000
     960.000 0.6993 0.7149 0.9999 0.9998 1.0000 1.0000 0.9929 0.9855 1.0000 1.0000 1.0000
     960.500 0.7400 0.7562 0.9999 0.9998 1.0000 1.0000 0.9932 0.9855 1.0000 1.0000 1.0000
     961.000 0.7657 0.7822 0.9999 0.9998 1.0000 1.0000 0.9936 0.9856 1.0000 1.0000 1.0000
     961.500 0.7912 0.8079 0.9999 0.9998 1.0000 1.0000 0.9939 0.9856 1.0000 1.0000 1.0000
     962.000 0.7675 0.7835 0.9999 0.9998 1.0000 1.0000 0.9942 0.9856 1.0000 1.0000 1.0000
     962.500 0.7197 0.7344 0.9999 0.9998 1.0000 1.0000 0.9945 0.9856 1.0000 1.0000 1.0000
     963.000 0.7605 0.7758 0.9999 0.9998 1.0000 1.0000 0.9947 0.9857 1.0000 1.0000 1.0000
     963.500 0.8044 0.8204 0.9999 0.9998 1.0000 1.0000 0.9950 0.9857 1.0000 1.0000 1.0000
     964.000 0.7915 0.8070 0.9999 0.9998 1.0000 1.0000 0.9953 0.9857 1.0000 1.0000 1.0000
     964.500 0.7915 0.8067 0.9999 0.9998 1.0000 1.0000 0.9955 0.9858 1.0000 1.0000 1.0000
     965.000 0.8094 0.8246 0.9999 0.9998 1.0000 1.0000 0.9958 0.9858 1.0000 1.0000 1.0000
     965.500 0.8352 0.8507 0.9999 0.9999 1.0000 1.0000 0.9961 0.9858 1.0000 1.0000 1.0000
     966.000 0.8117 0.8265 0.9999 0.9999 1.0000 1.0000 0.9964 0.9859 1.0000 1.0000 1.0000
     966.500 0.7722 0.7860 0.9999 0.9999 1.0000 1.0000 0.9967 0.9859 1.0000 1.0000 1.0000
     967.000 0.7983 0.8123 0.9999 0.9999 1.0000 1.0000 0.9970 0.9859 1.0000 1.0000 1.0000
     967.500 0.8890 0.9043 0.9999 0.9999 1.0000 1.0000 0.9973 0.9859 1.0000 1.0000 1.0000
     968.000 0.9208 0.9365 0.9999 0.9999 1.0000 1.0000 0.9975 0.9860 1.0000 1.0000 1.0000
     968.500 0.8950 0.9100 0.9999 0.9999 1.0000 1.0000 0.9976 0.9860 1.0000 1.0000 1.0000
     969.000 0.9096 0.9247 0.9999 0.9999 1.0000 1.0000 0.9978 0.9860 1.0000 1.0000 1.0000
     969.500 0.9250 0.9402 0.9999 0.9999 1.0000 1.0000 0.9979 0.9861 1.0000 1.0000 1.0000
     970.000 0.9126 0.9274 0.9999 0.9999 1.0000 1.0000 0.9981 0.9861 1.0000 1.0000 1.0000
     970.500 0.9087 0.9234 0.9999 0.9999 1.0000 1.0000 0.9981 0.9861 1.0000 1.0000 1.0000
     971.000 0.9245 0.9393 0.9999 0.9999 1.0000 1.0000 0.9982 0.9861 1.0000 1.0000 1.0000
     971.500 0.9117 0.9263 0.9999 0.9999 1.0000 1.0000 0.9982 0.9862 1.0000 1.0000 1.0000
     972.000 0.9078 0.9223 0.9999 0.9999 1.0000 1.0000 0.9981 0.9862 1.0000 1.0000 1.0000
     972.500 0.9015 0.9160 0.9999 0.9999 1.0000 1.0000 0.9981 0.9862 1.0000 1.0000 1.0000
     973.000 0.8828 0.8970 0.9999 0.9999 1.0000 1.0000 0.9980 0.9863 1.0000 1.0000 1.0000
     973.500 0.8748 0.8889 0.9999 0.9999 1.0000 1.0000 0.9980 0.9863 1.0000 1.0000 1.0000
     974.000 0.8732 0.8872 0.9999 0.9999 1.0000 1.0000 0.9980 0.9863 1.0000 1.0000 1.0000
     974.500 0.8623 0.8762 0.9999 0.9999 1.0000 1.0000 0.9980 0.9864 1.0000 1.0000 1.0000
     975.000 0.8522 0.8659 0.9999 0.9999 1.0000 1.0000 0.9980 0.9864 1.0000 1.0000 1.0000
     975.500 0.8553 0.8689 0.9999 0.9999 1.0000 1.0000 0.9980 0.9864 1.0000 1.0000 1.0000
     976.000 0.8485 0.8621 0.9999 0.9999 1.0000 1.0000 0.9980 0.9864 1.0000 1.0000 1.0000
     976.500 0.8599 0.8736 0.9999 0.9999 1.0000 1.0000 0.9980 0.9865 1.0000 1.0000 1.0000
     977.000 0.8964 0.9106 0.9999 0.9999 1.0000 1.0000 0.9981 0.9865 1.0000 1.0000 1.0000
     977.500 0.9135 0.9278 0.9999 0.9999 1.0000 1.0000 0.9982 0.9865 1.0000 1.0000 1.0000
     978.000 0.9013 0.9153 0.9999 0.9999 1.0000 1.0000 0.9983 0.9865 1.0000 1.0000 1.0000
     978.500 0.8954 0.9091 0.9999 0.9999 1.0000 1.0000 0.9984 0.9866 1.0000 1.0000 1.0000
     979.000 0.8934 0.9070 0.9999 0.9999 1.0000 1.0000 0.9986 0.9866 1.0000 1.0000 1.0000
     979.500 0.8878 0.9012 0.9999 0.9999 1.0000 1.0000 0.9987 0.9866 1.0000 1.0000 1.0000
     980.000 0.8972 0.9107 0.9999 0.9999 1.0000 1.0000 0.9988 0.9866 1.0000 1.0000 1.0000
     980.500 0.9077 0.9212 0.9999 0.9999 1.0000 1.0000 0.9988 0.9867 1.0000 1.0000 1.0000
     981.000 0.9434 0.9573 0.9999 0.9999 1.0000 1.0000 0.9989 0.9867 1.0000 1.0000 1.0000
     981.500 0.9523 0.9662 0.9999 0.9999 1.0000 1.0000 0.9990 0.9867 1.0000 1.0000 1.0000
     982.000 0.9454 0.9590 0.9999 0.9999 1.0000 1.0000 0.9991 0.9867 1.0000 1.0000 1.0000
     982.500 0.9359 0.9493 0.9999 0.9999 1.0000 1.0000 0.9992 0.9868 1.0000 1.0000 1.0000
     983.000 0.9336 0.9469 0.9999 0.9999 1.0000 1.0000 0.9993 0.9868 1.0000 1.0000 1.0000
     983.500 0.9554 0.9689 0.9999 0.9999 1.0000 1.0000 0.9994 0.9868 1.0000 1.0000 1.0000
     984.000 0.9688 0.9824 0.9999 0.9999 1.0000 1.0000 0.9995 0.9869 1.0000 1.0000 1.0000
     984.500 0.9601 0.9735 0.9999 0.9999 1.0000 1.0000 0.9996 0.9869 1.0000 1.0000 1.0000
     985.000 0.9508 0.9641 0.9999 0.9999 1.0000 1.0000 0.9996 0.9869 1.0000 1.0000 1.0000
     985.500 0.9614 0.9747 0.9999 0.9999 1.0000 1.0000 0.9997 0.9870 1.0000 1.0000 1.0000
     986.000 0.9755 0.9890 0.9999 0.9999 1.0000 1.0000 0.9997 0.9870 1.0000 1.0000 1.0000
     986.500 0.9787 0.9921 0.9999 0.9999 1.0000 1.0000 0.9998 0.9870 1.0000 1.0000 1.0000
     987.000 0.9746 0.9879 0.9999 0.9998 1.0000 1.0000 0.9998 0.9870 1.0000 1.0000 1.0000
     987.500 0.9713 0.9845 0.9999 0.9998 1.0000 1.0000 0.9998 0.9871 1.0000 1.0000 1.0000
     988.000 0.9755 0.9887 0.9999 0.9998 1.0000 1.0000 0.9999 0.9871 1.0000 1.0000 1.0000
     988.500 0.9810 0.9943 0.9999 0.9998 1.0000 1.0000 0.9999 0.9871 1.0000 1.0000 1.0000
     989.000 0.9820 0.9952 0.9999 0.9998 1.0000 1.0000 0.9999 0.9871 1.0000 1.0000 1.0000
     989.500 0.9798 0.9931 0.9999 0.9997 1.0000 1.0000 0.9999 0.9872 1.0000 1.0000 1.0000
     990.000 0.9772 0.9904 0.9998 0.9997 1.0000 1.0000 0.9999 0.9872 1.0000 1.0000 1.0000
     990.500 0.9786 0.9919 0.9998 0.9996 1.0000 1.0000 0.9999 0.9872 1.0000 1.0000 1.0000
     991.000 0.9811 0.9946 0.9998 0.9994 1.0000 1.0000 0.9999 0.9872 1.0000 1.0000 1.0000
     991.500 0.9822 0.9956 0.9998 0.9994 1.0000 1.0000 0.9999 0.9873 1.0000 1.0000 1.0000
     992.000 0.9827 0.9960 0.9998 0.9995 1.0000 1.0000 1.0000 0.9873 1.0000 1.0000 1.0000
     992.500 0.9816 0.9949 0.9998 0.9996 1.0000 1.0000 1.0000 0.9873 1.0000 1.0000 1.0000
     993.000 0.9796 0.9927 0.9998 0.9996 1.0000 1.0000 1.0000 0.9873 1.0000 1.0000 1.0000
     993.500 0.9816 0.9947 0.9998 0.9996 1.0000 1.0000 1.0000 0.9874 1.0000 1.0000 1.0000
     994.000 0.9844 0.9975 0.9998 0.9996 1.0000 1.0000 1.0000 0.9874 1.0000 1.0000 1.0000
     994.500 0.9853 0.9984 0.9998 0.9996 1.0000 1.0000 1.0000 0.9874 1.0000 1.0000 1.0000
     995.000 0.9855 0.9986 0.9998 0.9996 1.0000 1.0000 1.0000 0.9874 1.0000 1.0000 1.0000
     995.500 0.9853 0.9983 0.9998 0.9997 1.0000 1.0000 1.0000 0.9875 1.0000 1.0000 1.0000
     996.000 0.9853 0.9982 0.9998 0.9997 1.0000 1.0000 1.0000 0.9875 1.0000 1.0000 1.0000
     996.500 0.9856 0.9985 0.9998 0.9997 1.0000 1.0000 1.0000 0.9875 1.0000 1.0000 1.0000
     997.000 0.9855 0.9983 0.9998 0.9998 1.0000 1.0000 1.0000 0.9875 1.0000 1.0000 1.0000
     997.500 0.9855 0.9983 0.9998 0.9998 1.0000 1.0000 1.0000 0.9876 1.0000 1.0000 1.0000
     998.000 0.9851 0.9979 0.9998 0.9998 1.0000 1.0000 1.0000 0.9876 1.0000 1.0000 1.0000
     998.500 0.9852 0.9979 0.9998 0.9998 1.0000 1.0000 1.0000 0.9876 1.0000 1.0000 1.0000
     999.000 0.9850 0.9977 0.9998 0.9998 1.0000 1.0000 1.0000 0.9876 1.0000 1.0000 1.0000
     999.500 0.9842 0.9969 0.9998 0.9998 1.0000 1.0000 1.0000 0.9877 1.0000 1.0000 1.0000
    1000.000 0.9845 0.9972 0.9998 0.9999 1.0000 1.0000 1.0000 0.9877 1.0000 1.0000 1.0000
    1000.500 0.9859 0.9986 0.9998 0.9999 1.0000 1.0000 1.0000 0.9877 1.0000 1.0000 1.0000
    1001.000 0.9858 0.9984 0.9998 0.9999 1.0000 1.0000 1.0000 0.9877 1.0000 1.0000 1.0000
    1001.500 0.9823 0.9948 0.9998 0.9999 1.0000 1.0000 1.0000 0.9878 1.0000 1.0000 1.0000
    1002.000 0.9787 0.9912 0.9998 0.9999 1.0000 1.0000 0.9999 0.9878 1.0000 1.0000 1.0000
    1002.500 0.9807 0.9932 0.9998 0.9999 1.0000 1.0000 0.9999 0.9878 1.0000 1.0000 1.0000
    1003.000 0.9847 0.9973 0.9998 0.9999 1.0000 1.0000 0.9999 0.9878 1.0000 1.0000 1.0000
    1003.500 0.9856 0.9981 0.9998 0.9999 1.0000 1.0000 0.9999 0.9879 1.0000 1.0000 1.0000
    1004.000 0.9844 0.9968 0.9998 0.9999 1.0000 1.0000 0.9999 0.9879 1.0000 1.0000 1.0000
    1004.500 0.9844 0.9969 0.9998 0.9999 1.0000 1.0000 0.9999 0.9879 1.0000 1.0000 1.0000
    1005.000 0.9850 0.9974 0.9998 0.9999 1.0000 1.0000 0.9999 0.9879 1.0000 1.0000 1.0000
    1005.500 0.9849 0.9973 0.9998 0.9999 1.0000 1.0000 0.9999 0.9880 1.0000 1.0000 1.0000
    1006.000 0.9854 0.9978 0.9998 0.9999 1.0000 1.0000 0.9999 0.9880 1.0000 1.0000 1.0000
    1006.500 0.9858 0.9982 0.9997 0.9999 1.0000 1.0000 0.9999 0.9880 1.0000 1.0000 1.0000
    1007.000 0.9859 0.9982 0.9997 0.9999 1.0000 1.0000 0.9999 0.9880 1.0000 1.0000 1.0000
    1007.500 0.9855 0.9979 0.9997 0.9999 1.0000 1.0000 0.9999 0.9880 1.0000 1.0000 1.0000
    1008.000 0.9846 0.9969 0.9997 0.9999 1.0000 1.0000 0.9999 0.9881 1.0000 1.0000 1.0000
    1008.500 0.9839 0.9962 0.9997 0.9999 1.0000 1.0000 0.9999 0.9881 1.0000 1.0000 1.0000
    1009.000 0.9817 0.9939 0.9997 0.9999 1.0000 1.0000 0.9999 0.9881 1.0000 1.0000 1.0000
    1009.500 0.9795 0.9917 0.9997 0.9999 1.0000 1.0000 0.9999 0.9881 1.0000 1.0000 1.0000
    1010.000 0.9814 0.9936 0.9997 0.9999 1.0000 1.0000 0.9999 0.9882 1.0000 1.0000 1.0000
    1010.500 0.9848 0.9969 0.9997 1.0000 1.0000 1.0000 0.9999 0.9882 1.0000 1.0000 1.0000
    1011.000 0.9863 0.9985 0.9997 1.0000 1.0000 1.0000 0.9999 0.9882 1.0000 1.0000 1.0000
    1011.500 0.9859 0.9980 0.9997 1.0000 1.0000 1.0000 0.9999 0.9882 1.0000 1.0000 1.0000
    1012.000 0.9849 0.9970 0.9997 1.0000 1.0000 1.0000 0.9999 0.9883 1.0000 1.0000 1.0000
    1012.500 0.9855 0.9976 0.9997 1.0000 1.0000 1.0000 0.9999 0.9883 1.0000 1.0000 1.0000
    1013.000 0.9865 0.9986 0.9997 1.0000 1.0000 1.0000 1.0000 0.9883 1.0000 1.0000 1.0000
    1013.500 0.9869 0.9990 0.9997 1.0000 1.0000 1.0000 1.0000 0.9883 1.0000 1.0000 1.0000
    1014.000 0.9866 0.9987 0.9997 1.0000 1.0000 1.0000 1.0000 0.9884 1.0000 1.0000 1.0000
    1014.500 0.9861 0.9981 0.9997 1.0000 1.0000 1.0000 1.0000 0.9884 1.0000 1.0000 1.0000
    1015.000 0.9863 0.9983 0.9996 1.0000 1.0000 1.0000 1.0000 0.9884 1.0000 1.0000 1.0000
    1015.500 0.9862 0.9982 0.9996 1.0000 1.0000 1.0000 1.0000 0.9884 1.0000 1.0000 1.0000
    1016.000 0.9863 0.9982 0.9996 1.0000 1.0000 1.0000 1.0000 0.9884 1.0000 1.0000 1.0000
    1016.500 0.9866 0.9985 0.9996 1.0000 1.0000 1.0000 1.0000 0.9885 1.0000 1.0000 1.0000
    1017.000 0.9863 0.9982 0.9996 1.0000 1.0000 1.0000 1.0000 0.9885 1.0000 1.0000 1.0000
    1017.500 0.9866 0.9986 0.9996 1.0000 1.0000 1.0000 1.0000 0.9885 1.0000 1.0000 1.0000
    1018.000 0.9874 0.9993 0.9996 1.0000 1.0000 1.0000 1.0000 0.9885 1.0000 1.0000 1.0000
    1018.500 0.9871 0.9991 0.9996 1.0000 1.0000 1.0000 1.0000 0.9885 1.0000 1.0000 1.0000
    1019.000 0.9851 0.9970 0.9996 1.0000 1.0000 1.0000 1.0000 0.9886 1.0000 1.0000 1.0000
    1019.500 0.9843 0.9961 0.9996 1.0000 1.0000 1.0000 1.0000 0.9886 1.0000 1.0000 1.0000
    1020.000 0.9861 0.9980 0.9996 1.0000 1.0000 1.0000 1.0000 0.9886 1.0000 1.0000 1.0000
    1020.500 0.9871 0.9989 0.9996 1.0000 1.0000 1.0000 1.0000 0.9886 1.0000 1.0000 1.0000
    1021.000 0.9873 0.9991 0.9995 1.0000 1.0000 1.0000 1.0000 0.9887 1.0000 1.0000 1.0000
    1021.500 0.9868 0.9987 0.9995 1.0000 1.0000 1.0000 1.0000 0.9887 1.0000 1.0000 1.0000
    1022.000 0.9866 0.9984 0.9995 1.0000 1.0000 1.0000 1.0000 0.9887 1.0000 1.0000 1.0000
    1022.500 0.9865 0.9984 0.9995 1.0000 1.0000 1.0000 1.0000 0.9887 1.0000 1.0000 1.0000
    1023.000 0.9855 0.9973 0.9995 1.0000 1.0000 1.0000 1.0000 0.9888 1.0000 1.0000 1.0000
    1023.500 0.9843 0.9961 0.9995 1.0000 1.0000 1.0000 1.0000 0.9888 1.0000 1.0000 1.0000
    1024.000 0.9837 0.9954 0.9995 1.0000 1.0000 1.0000 1.0000 0.9888 1.0000 1.0000 1.0000
    1024.500 0.9855 0.9973 0.9995 1.0000 1.0000 1.0000 1.0000 0.9888 1.0000 1.0000 1.0000
    1025.000 0.9869 0.9987 0.9994 1.0000 1.0000 1.0000 1.0000 0.9888 1.0000 1.0000 1.0000
    1025.500 0.9869 0.9987 0.9994 1.0000 1.0000 1.0000 1.0000 0.9889 1.0000 1.0000 1.0000
    1026.000 0.9870 0.9988 0.9994 1.0000 1.0000 1.0000 1.0000 0.9889 1.0000 1.0000 1.0000
    1026.500 0.9873 0.9991 0.9994 1.0000 1.0000 1.0000 1.0000 0.9889 1.0000 1.0000 1.0000
    1027.000 0.9870 0.9987 0.9994 1.0000 1.0000 1.0000 1.0000 0.9889 1.0000 1.0000 1.0000
    1027.500 0.9863 0.9980 0.9994 1.0000 1.0000 1.0000 1.0000 0.9890 1.0000 1.0000 1.0000
    1028.000 0.9866 0.9983 0.9994 1.0000 1.0000 1.0000 1.0000 0.9890 1.0000 1.0000 1.0000
    1028.500 0.9869 0.9986 0.9993 1.0000 1.0000 1.0000 1.0000 0.9890 1.0000 1.0000 1.0000
    1029.000 0.9869 0.9986 0.9993 1.0000 1.0000 1.0000 1.0000 0.9890 1.0000 1.0000 1.0000
    1029.500 0.9874 0.9991 0.9993 1.0000 1.0000 1.0000 1.0000 0.9890 1.0000 1.0000 1.0000
    1030.000 0.9878 0.9995 0.9993 1.0000 1.0000 1.0000 1.0000 0.9891 1.0000 1.0000 1.0000
    1030.500 0.9879 0.9996 0.9993 1.0000 1.0000 1.0000 1.0000 0.9891 1.0000 1.0000 1.0000
    1031.000 0.9877 0.9994 0.9992 1.0000 1.0000 1.0000 1.0000 0.9891 1.0000 1.0000 1.0000
    1031.500 0.9876 0.9993 0.9992 1.0000 1.0000 1.0000 1.0000 0.9891 1.0000 1.0000 1.0000
    1032.000 0.9880 0.9997 0.9992 1.0000 1.0000 1.0000 1.0000 0.9891 1.0000 1.0000 1.0000
    1032.500 0.9882 0.9999 0.9992 1.0000 1.0000 1.0000 1.0000 0.9892 1.0000 1.0000 1.0000
    1033.000 0.9881 0.9998 0.9991 1.0000 1.0000 1.0000 1.0000 0.9892 1.0000 1.0000 1.0000
    1033.500 0.9879 0.9996 0.9991 1.0000 1.0000 1.0000 1.0000 0.9892 1.0000 1.0000 1.0000
    1034.000 0.9880 0.9997 0.9991 1.0000 1.0000 1.0000 1.0000 0.9892 1.0000 1.0000 1.0000
    1034.500 0.9882 0.9999 0.9990 1.0000 1.0000 1.0000 1.0000 0.9893 1.0000 1.0000 1.0000
    1035.000 0.9882 1.0000 0.9990 1.0000 1.0000 1.0000 1.0000 0.9893 1.0000 1.0000 1.0000
    1035.500 0.9881 0.9999 0.9990 1.0000 1.0000 1.0000 1.0000 0.9893 1.0000 1.0000 1.0000
    1036.000 0.9880 0.9998 0.9989 1.0000 1.0000 1.0000 1.0000 0.9893 1.0000 1.0000 1.0000
    1036.500 0.9878 0.9999 0.9987 1.0000 1.0000 1.0000 1.0000 0.9893 1.0000 1.0000 1.0000
    1037.000 0.9878 1.0000 0.9985 1.0000 1.0000 1.0000 1.0000 0.9893 1.0000 1.0000 1.0000
    1037.500 0.9878 1.0000 0.9985 1.0000 1.0000 1.0000 1.0000 0.9894 1.0000 1.0000 1.0000
    1038.000 0.9879 1.0000 0.9986 1.0000 1.0000 1.0000 1.0000 0.9894 1.0000 1.0000 1.0000
    1038.500 0.9879 1.0000 0.9986 1.0000 1.0000 1.0000 1.0000 0.9894 1.0000 1.0000 1.0000
    1039.000 0.9879 1.0000 0.9985 1.0000 1.0000 1.0000 1.0000 0.9894 1.0000 1.0000 1.0000
    1039.500 0.9879 1.0000 0.9985 1.0000 1.0000 1.0000 1.0000 0.9895 1.0000 1.0000 1.0000
    1040.000 0.9878 1.0000 0.9984 1.0000 1.0000 1.0000 1.0000 0.9895 1.0000 1.0000 1.0000
    1040.500 0.9878 0.9999 0.9983 1.0000 1.0000 1.0000 1.0000 0.9895 1.0000 1.0000 1.0000
    1041.000 0.9878 0.9999 0.9983 1.0000 1.0000 1.0000 1.0000 0.9895 1.0000 1.0000 1.0000
    1041.500 0.9878 1.0000 0.9983 1.0000 1.0000 1.0000 1.0000 0.9895 1.0000 1.0000 1.0000
    1042.000 0.9878 1.0000 0.9983 0.9999 1.0000 1.0000 1.0000 0.9896 1.0000 1.0000 1.0000
    1042.500 0.9877 1.0000 0.9982 0.9999 1.0000 1.0000 1.0000 0.9896 1.0000 1.0000 1.0000
    1043.000 0.9877 1.0000 0.9982 0.9999 1.0000 1.0000 1.0000 0.9896 1.0000 1.0000 1.0000
    1043.500 0.9876 1.0000 0.9981 0.9999 1.0000 1.0000 1.0000 0.9896 1.0000 1.0000 1.0000
    1044.000 0.9876 1.0000 0.9980 0.9999 1.0000 1.0000 1.0000 0.9896 1.0000 1.0000 1.0000
    1044.500 0.9875 1.0000 0.9979 0.9999 1.0000 1.0000 1.0000 0.9896 1.0000 1.0000 1.0000
    1045.000 0.9874 1.0000 0.9978 0.9999 1.0000 1.0000 1.0000 0.9897 1.0000 1.0000 1.0000
    1045.500 0.9873 1.0000 0.9977 0.9999 1.0000 1.0000 1.0000 0.9897 1.0000 1.0000 1.0000
    1046.000 0.9871 1.0000 0.9975 0.9999 1.0000 1.0000 1.0000 0.9897 1.0000 1.0000 1.0000
    1046.500 0.9870 1.0000 0.9974 0.9999 1.0000 1.0000 1.0000 0.9897 1.0000 1.0000 1.0000
    1047.000 0.9869 1.0000 0.9973 0.9999 1.0000 1.0000 1.0000 0.9898 1.0000 1.0000 1.0000
    1047.500 0.9868 1.0000 0.9971 0.9999 1.0000 1.0000 1.0000 0.9898 1.0000 1.0000 1.0000
    1048.000 0.9867 1.0000 0.9970 0.9999 1.0000 1.0000 1.0000 0.9898 1.0000 1.0000 1.0000
    1048.500 0.9864 1.0000 0.9966 0.9999 1.0000 1.0000 1.0000 0.9898 1.0000 1.0000 1.0000
    1049.000 0.9857 1.0000 0.9959 0.9999 1.0000 1.0000 1.0000 0.9898 1.0000 1.0000 1.0000
    1049.500 0.9851 1.0000 0.9953 0.9999 1.0000 1.0000 1.0000 0.9898 1.0000 1.0000 1.0000
    1050.000 0.9850 1.0000 0.9952 0.9999 1.0000 1.0000 1.0000 0.9899 1.0000 1.0000 1.0000
    1050.500 0.9852 1.0000 0.9953 0.9999 1.0000 1.0000 1.0000 0.9899 1.0000 1.0000 1.0000
    1051.000 0.9851 1.0000 0.9952 0.9999 1.0000 1.0000 1.0000 0.9899 1.0000 1.0000 1.0000
    1051.500 0.9847 1.0000 0.9948 0.9999 1.0000 1.0000 1.0000 0.9899 1.0000 1.0000 1.0000
    1052.000 0.9843 1.0000 0.9944 0.9999 1.0000 1.0000 1.0000 0.9899 1.0000 1.0000 1.0000
    1052.500 0.9839 1.0000 0.9940 0.9999 1.0000 1.0000 1.0000 0.9900 1.0000 1.0000 1.0000
    1053.000 0.9836 1.0000 0.9937 0.9999 1.0000 1.0000 1.0000 0.9900 1.0000 1.0000 1.0000
    1053.500 0.9833 1.0000 0.9933 1.0000 1.0000 1.0000 1.0000 0.9900 1.0000 1.0000 1.0000
    1054.000 0.9830 1.0000 0.9929 1.0000 1.0000 1.0000 1.0000 0.9900 1.0000 1.0000 1.0000
    1054.500 0.9825 1.0000 0.9924 1.0000 1.0000 1.0000 1.0000 0.9900 1.0000 1.0000 1.0000
    1055.000 0.9819 0.9999 0.9918 1.0000 1.0000 1.0000 1.0000 0.9901 1.0000 1.0000 1.0000
    1055.500 0.9812 1.0000 0.9912 1.0000 1.0000 1.0000 1.0000 0.9901 1.0000 1.0000 1.0000
    1056.000 0.9806 0.9999 0.9905 1.0000 1.0000 1.0000 1.0000 0.9901 1.0000 1.0000 1.0000
    1056.500 0.9799 1.0000 0.9897 1.0000 1.0000 1.0000 1.0000 0.9901 1.0000 1.0000 1.0000
    1057.000 0.9791 1.0000 0.9889 1.0000 1.0000 1.0000 1.0000 0.9901 1.0000 1.0000 1.0000
    1057.500 0.9783 1.0000 0.9881 1.0000 1.0000 1.0000 1.0000 0.9902 1.0000 1.0000 1.0000
    1058.000 0.9775 0.9999 0.9873 1.0000 1.0000 1.0000 1.0000 0.9902 1.0000 1.0000 1.0000
    1058.500 0.9767 0.9999 0.9866 1.0000 1.0000 1.0000 1.0000 0.9902 1.0000 1.0000 1.0000
    1059.000 0.9760 0.9999 0.9858 1.0000 1.0000 1.0000 1.0000 0.9902 1.0000 1.0000 1.0000
    1059.500 0.9755 1.0000 0.9852 1.0000 1.0000 1.0000 1.0000 0.9902 1.0000 1.0000 1.0000
    1060.000 0.9751 1.0000 0.9847 1.0000 1.0000 1.0000 1.0000 0.9902 1.0000 1.0000 1.0000
    1060.500 0.9747 1.0000 0.9843 1.0000 1.0000 1.0000 1.0000 0.9903 1.0000 1.0000 1.0000
    1061.000 0.9743 0.9999 0.9839 1.0000 1.0000 1.0000 1.0000 0.9903 1.0000 1.0000 1.0000
    1061.500 0.9738 0.9999 0.9836 1.0000 1.0000 1.0000 1.0000 0.9903 1.0000 1.0000 1.0000
    1062.000 0.9732 0.9996 0.9831 1.0000 1.0000 1.0000 1.0000 0.9903 1.0000 1.0000 1.0000
    1062.500 0.9725 0.9995 0.9826 1.0000 1.0000 1.0000 1.0000 0.9903 1.0000 1.0000 1.0000
    1063.000 0.9720 0.9996 0.9819 1.0000 1.0000 1.0000 1.0000 0.9904 1.0000 1.0000 1.0000
    1063.500 0.9715 0.9998 0.9812 1.0000 1.0000 1.0000 1.0000 0.9904 1.0000 1.0000 1.0000
    1064.000 0.9708 0.9999 0.9805 1.0000 1.0000 1.0000 1.0000 0.9904 1.0000 1.0000 1.0000
    1064.500 0.9699 0.9995 0.9800 1.0000 1.0000 1.0000 1.0000 0.9904 1.0000 1.0000 1.0000
    1065.000 0.9694 0.9991 0.9798 1.0000 1.0000 1.0000 1.0000 0.9904 1.0000 1.0000 1.0000
    1065.500 0.9695 0.9994 0.9795 1.0000 1.0000 1.0000 1.0000 0.9904 1.0000 1.0000 1.0000
    1066.000 0.9697 0.9998 0.9794 1.0000 1.0000 1.0000 1.0000 0.9905 1.0000 1.0000 1.0000
    1066.500 0.9699 0.9998 0.9795 1.0000 1.0000 1.0000 1.0000 0.9905 1.0000 1.0000 1.0000
    1067.000 0.9699 0.9995 0.9799 1.0000 1.0000 1.0000 1.0000 0.9905 1.0000 1.0000 1.0000
    1067.500 0.9694 0.9990 0.9798 1.0000 1.0000 1.0000 1.0000 0.9905 1.0000 1.0000 1.0000
    1068.000 0.9700 0.9991 0.9804 1.0000 1.0000 1.0000 0.9999 0.9905 1.0000 1.0000 1.0000
    1068.500 0.9720 0.9993 0.9821 1.0000 1.0000 1.0000 0.9999 0.9905 1.0000 1.0000 1.0000
    1069.000 0.9730 0.9986 0.9838 1.0000 1.0000 1.0000 0.9999 0.9906 1.0000 1.0000 1.0000
    1069.500 0.9733 0.9974 0.9853 1.0000 1.0000 1.0000 0.9999 0.9906 1.0000 1.0000 1.0000
    1070.000 0.9743 0.9972 0.9865 1.0000 1.0000 1.0000 0.9999 0.9906 1.0000 1.0000 1.0000
    1070.500 0.9766 0.9984 0.9876 1.0000 1.0000 1.0000 0.9999 0.9906 1.0000 1.0000 1.0000
    1071.000 0.9784 0.9991 0.9887 1.0000 1.0000 1.0000 0.9999 0.9906 1.0000 1.0000 1.0000
    1071.500 0.9787 0.9985 0.9896 1.0000 1.0000 1.0000 0.9999 0.9906 1.0000 1.0000 1.0000
    1072.000 0.9781 0.9969 0.9905 1.0000 1.0000 1.0000 0.9999 0.9907 1.0000 1.0000 1.0000
    1072.500 0.9783 0.9962 0.9914 1.0000 1.0000 1.0000 0.9999 0.9907 1.0000 1.0000 1.0000
    1073.000 0.9805 0.9976 0.9923 1.0000 1.0000 1.0000 0.9999 0.9907 1.0000 1.0000 1.0000
    1073.500 0.9825 0.9989 0.9930 1.0000 1.0000 1.0000 0.9998 0.9907 1.0000 1.0000 1.0000
    1074.000 0.9812 0.9969 0.9936 1.0000 1.0000 1.0000 0.9998 0.9907 1.0000 1.0000 1.0000
    1074.500 0.9769 0.9919 0.9942 1.0000 1.0000 1.0000 0.9998 0.9908 1.0000 1.0000 1.0000
    1075.000 0.9783 0.9928 0.9948 1.0000 1.0000 1.0000 0.9998 0.9908 1.0000 1.0000 1.0000
    1075.500 0.9836 0.9976 0.9953 1.0000 1.0000 1.0000 0.9998 0.9908 1.0000 1.0000 1.0000
    1076.000 0.9851 0.9987 0.9957 1.0000 1.0000 1.0000 0.9998 0.9908 1.0000 1.0000 1.0000
    1076.500 0.9843 0.9976 0.9961 1.0000 1.0000 1.0000 0.9998 0.9908 1.0000 1.0000 1.0000
    1077.000 0.9809 0.9937 0.9964 1.0000 1.0000 1.0000 0.9997 0.9908 1.0000 1.0000 1.0000
    1077.500 0.9758 0.9883 0.9967 1.0000 1.0000 1.0000 0.9997 0.9909 1.0000 1.0000 1.0000
    1078.000 0.9786 0.9908 0.9970 1.0000 1.0000 1.0000 0.9997 0.9909 1.0000 1.0000 1.0000
    1078.500 0.9841 0.9961 0.9973 1.0000 1.0000 1.0000 0.9997 0.9909 1.0000 1.0000 1.0000
    1079.000 0.9858 0.9976 0.9975 1.0000 1.0000 1.0000 0.9997 0.9909 1.0000 1.0000 1.0000
    1079.500 0.9847 0.9963 0.9977 1.0000 1.0000 1.0000 0.9997 0.9909 1.0000 1.0000 1.0000
    1080.000 0.9789 0.9903 0.9979 1.0000 1.0000 1.0000 0.9996 0.9909 1.0000 1.0000 1.0000
    1080.500 0.9734 0.9846 0.9981 1.0000 1.0000 1.0000 0.9996 0.9910 1.0000 1.0000 1.0000
    1081.000 0.9758 0.9869 0.9982 1.0000 1.0000 1.0000 0.9996 0.9910 1.0000 1.0000 1.0000
    1081.500 0.9762 0.9871 0.9983 1.0000 1.0000 1.0000 0.9996 0.9910 1.0000 1.0000 1.0000
    1082.000 0.9794 0.9903 0.9985 1.0000 1.0000 1.0000 0.9995 0.9910 1.0000 1.0000 1.0000
    1082.500 0.9839 0.9947 0.9986 1.0000 1.0000 1.0000 0.9995 0.9910 1.0000 1.0000 1.0000
    1083.000 0.9776 0.9883 0.9987 1.0000 1.0000 1.0000 0.9995 0.9910 1.0000 1.0000 1.0000
    1083.500 0.9709 0.9815 0.9988 1.0000 1.0000 1.0000 0.9994 0.9911 1.0000 1.0000 1.0000
    1084.000 0.9761 0.9866 0.9989 1.0000 1.0000 1.0000 0.9994 0.9911 1.0000 1.0000 1.0000
    1084.500 0.9795 0.9900 0.9990 1.0000 1.0000 1.0000 0.9994 0.9911 1.0000 1.0000 1.0000
    1085.000 0.9788 0.9891 0.9990 1.0000 1.0000 1.0000 0.9994 0.9911 1.0000 1.0000 1.0000
    1085.500 0.9708 0.9810 0.9991 1.0000 1.0000 1.0000 0.9994 0.9911 1.0000 1.0000 1.0000
    1086.000 0.9552 0.9652 0.9991 1.0000 1.0000 1.0000 0.9994 0.9911 1.0000 1.0000 1.0000
    1086.500 0.9517 0.9617 0.9992 1.0000 1.0000 1.0000 0.9993 0.9912 1.0000 1.0000 1.0000
    1087.000 0.9673 0.9774 0.9992 1.0000 1.0000 1.0000 0.9993 0.9912 1.0000 1.0000 1.0000
    1087.500 0.9802 0.9904 0.9993 1.0000 1.0000 1.0000 0.9992 0.9912 1.0000 1.0000 1.0000
    1088.000 0.9844 0.9946 0.9994 1.0000 1.0000 1.0000 0.9992 0.9912 1.0000 1.0000 1.0000
    1088.500 0.9800 0.9902 0.9994 1.0000 1.0000 1.0000 0.9991 0.9912 1.0000 1.0000 1.0000
    1089.000 0.9701 0.9801 0.9994 1.0000 1.0000 1.0000 0.9991 0.9912 1.0000 1.0000 1.0000
    1089.500 0.9662 0.9761 0.9994 1.0000 1.0000 1.0000 0.9991 0.9913 1.0000 1.0000 1.0000
    1090.000 0.9636 0.9736 0.9995 1.0000 1.0000 1.0000 0.9991 0.9913 1.0000 1.0000 1.0000
    1090.500 0.9582 0.9681 0.9995 1.0000 1.0000 1.0000 0.9990 0.9913 1.0000 1.0000 1.0000
    1091.000 0.9713 0.9813 0.9996 1.0000 1.0000 1.0000 0.9990 0.9913 1.0000 1.0000 1.0000
    1091.500 0.9792 0.9892 0.9996 1.0000 1.0000 1.0000 0.9989 0.9913 1.0000 1.0000 1.0000
    1092.000 0.9630 0.9728 0.9996 1.0000 1.0000 1.0000 0.9989 0.9913 1.0000 1.0000 1.0000
    1092.500 0.9460 0.9557 0.9996 1.0000 1.0000 1.0000 0.9988 0.9913 1.0000 1.0000 1.0000
    1093.000 0.9513 0.9612 0.9996 1.0000 1.0000 1.0000 0.9988 0.9914 1.0000 1.0000 1.0000
    1093.500 0.9665 0.9764 0.9997 1.0000 1.0000 1.0000 0.9987 0.9914 1.0000 1.0000 1.0000
    1094.000 0.9653 0.9752 0.9997 1.0000 1.0000 1.0000 0.9987 0.9914 1.0000 1.0000 1.0000
    1094.500 0.9512 0.9611 0.9997 1.0000 1.0000 1.0000 0.9986 0.9914 1.0000 1.0000 1.0000
    1095.000 0.9523 0.9622 0.9997 1.0000 1.0000 1.0000 0.9985 0.9914 1.0000 1.0000 1.0000
    1095.500 0.9507 0.9607 0.9997 1.0000 1.0000 1.0000 0.9984 0.9914 1.0000 1.0000 1.0000
    1096.000 0.9421 0.9521 0.9997 1.0000 1.0000 1.0000 0.9983 0.9915 1.0000 1.0000 1.0000
    1096.500 0.9555 0.9657 0.9998 1.0000 1.0000 1.0000 0.9982 0.9915 1.0000 1.0000 1.0000
    1097.000 0.9658 0.9762 0.9998 1.0000 1.0000 1.0000 0.9981 0.9915 1.0000 1.0000 1.0000
    1097.500 0.9519 0.9622 0.9998 1.0000 1.0000 1.0000 0.9980 0.9915 1.0000 1.0000 1.0000
    1098.000 0.9420 0.9522 0.9998 1.0000 1.0000 1.0000 0.9979 0.9915 1.0000 1.0000 1.0000
    1098.500 0.9393 0.9495 0.9999 1.0000 1.0000 1.0000 0.9978 0.9915 1.0000 1.0000 1.0000
    1099.000 0.9251 0.9352 1.0000 1.0000 1.0000 1.0000 0.9977 0.9916 1.0000 1.0000 1.0000
    1099.500 0.9130 0.9230 1.0000 1.0000 1.0000 1.0000 0.9975 0.9916 1.0000 1.0000 1.0000
    1100.000 0.9176 0.9277 1.0000 1.0000 1.0000 1.0000 0.9974 0.9916 1.0000 1.0000 1.0000
 -9999.
